time,seconds_elapsed,z,y,x
1687350873039198700,0.12019873046875,0.26727819442749023,0.017757177352905273,0.03804779052734375
1687350873059308800,0.140308837890625,0.2179042100906372,-0.012796401977539062,0.06363105773925781
1687350873079419000,0.1604189453125,0.14165055751800537,-0.032083749771118164,0.026845932006835938
1687350873099528700,0.18052880859375,0.13509535789489746,-0.06106758117675781,0.0033855438232421875
1687350873119638800,0.200638671875,0.195578932762146,-0.0781242847442627,0.020330429077148438
1687350873139748900,0.220748779296875,0.25331342220306396,-0.05631875991821289,0.03512096405029297
1687350873159858700,0.240858642578125,0.22457456588745117,-0.03371381759643555,0.06089305877685547
1687350873179968800,0.26096875,0.02066183090209961,-0.010666370391845703,0.14626026153564453
1687350873200078800,0.281078857421875,-0.15162968635559082,0.013337135314941406,0.18299007415771484
1687350873220188700,0.301188720703125,-0.15858042240142822,0.05727982521057129,0.09966278076171875
1687350873240298800,0.321298828125,-0.051175594329833984,0.041361331939697266,-0.017027854919433594
1687350873260408800,0.341408935546875,-0.0025568008422851562,0.07618927955627441,-0.014748573303222656
1687350873280518700,0.3615185546875,-0.07830893993377686,0.04131126403808594,0.009997367858886719
1687350873300628700,0.381628662109375,-0.0975959300994873,0.014488697052001953,-0.01123809814453125
1687350873320738800,0.40173876953125,-0.05524289608001709,-0.0036628246307373047,-0.06836128234863281
1687350873340848600,0.4218486328125,0.008182048797607422,-0.005686044692993164,-0.04719352722167969
1687350873360958700,0.441958740234375,0.03069937229156494,0.0016798973083496094,-0.0278472900390625
1687350873381068800,0.46206884765625,-0.011124849319458008,-0.00899505615234375,0.013037681579589844
1687350873401179000,0.482178955078125,-0.003835320472717285,-0.032506704330444336,0.04799365997314453
1687350873421288700,0.502288818359375,0.10919797420501709,-0.025468111038208008,-0.0057239532470703125
1687350873441398800,0.522398681640625,0.18266737461090088,-0.026738882064819336,-0.025949478149414062
1687350873461508900,0.5425087890625,0.18550240993499756,-0.025609254837036133,-0.008731842041015625
1687350873481618700,0.56261865234375,0.13114678859710693,-0.029312849044799805,0.020299911499023438
1687350873501728800,0.582728759765625,0.10638344287872314,-0.009301900863647461,0.17541217803955078
1687350873521838800,0.6028388671875,0.11529278755187988,0.05338931083679199,0.3671140670776367
1687350873541948700,0.62294873046875,0.25224292278289795,0.16555500030517578,0.5262289047241211
1687350873562058800,0.643058837890625,0.3682234287261963,0.30263304710388184,0.746058464050293
1687350873582168800,0.6631689453125,0.361194372177124,0.42429685592651367,1.0222806930541992
1687350873602278700,0.683278564453125,0.3927839994430542,0.48288893699645996,0.9913206100463867
1687350873622388700,0.703388671875,0.4037564992904663,0.37770962715148926,0.7450132369995117
1687350873642498800,0.723498779296875,0.4542098045349121,0.47369813919067383,0.8157310485839844
1687350873662609000,0.74360888671875,0.047149062156677246,0.38021373748779297,0.5897197723388672
1687350873682719000,0.763718994140625,-0.6445127129554749,0.30232715606689453,0.14590072631835938
1687350873702828800,0.783828857421875,-0.9879665374755859,0.19649505615234375,-0.3487663269042969
1687350873722939000,0.80393896484375,-0.5973119139671326,0.18657922744750977,-0.3482503890991211
1687350873743049000,0.824049072265625,-0.10766732692718506,0.09398555755615234,-0.37613487243652344
1687350873763159000,0.844158935546875,0.276924729347229,-0.09097671508789062,-0.5283775329589844
1687350873783269000,0.86426904296875,0.48428988456726074,-0.2559394836425781,-0.7147436141967773
1687350873803379200,0.884379150390625,0.426662802696228,-0.45916223526000977,-0.740509033203125
1687350873823489300,0.9044892578125,0.2362896203994751,-0.6466047763824463,-0.7598791122436523
1687350873843599400,0.924599365234375,0.09194362163543701,-0.7340853214263916,-0.7908878326416016
1687350873863709400,0.94470947265625,0.04818594455718994,-0.7201592922210693,-0.8857889175415039
1687350873883819300,0.9648193359375,-0.02666175365447998,-0.595026969909668,-0.971625804901123
1687350873903929300,0.984929443359375,-0.205674409866333,-0.38372087478637695,-0.7207860946655273
1687350873924039400,1.005039306640625,-0.5099294185638428,-0.09645271301269531,-0.4275178909301758
1687350873944149800,1.025149658203125,-0.7345293760299683,0.09643220901489258,-0.014550209045410156
1687350873964259800,1.045259765625,-0.48521244525909424,0.3076620101928711,0.5812978744506836
1687350873984370000,1.065369873046875,-0.3475285768508911,0.38134336471557617,1.0683155059814453
1687350874004480000,1.08547998046875,0.05928540229797363,0.5720863342285156,0.9824247360229492
1687350874024590000,1.105590087890625,0.11073136329650879,0.7851195335388184,1.3576726913452148
1687350874044700200,1.1257001953125,0.3540644645690918,0.8323378562927246,1.5497770309448242
1687350874064810200,1.145810302734375,0.7516217231750488,1.1720595359802246,1.7294807434082031
1687350874084920300,1.16592041015625,0.7975857257843018,1.3797531127929688,2.579037666320801
1687350874105031000,1.186031005859375,0.8728017807006836,1.9112648963928223,4.193828582763672
1687350874125141000,1.20614111328125,0.9361777305603027,2.3536882400512695,6.377636909484863
1687350874145251000,1.2262509765625,0.8849592208862305,2.556549549102783,8.583148956298828
1687350874165361200,1.246361083984375,2.553208589553833,2.052910327911377,10.455648422241211
1687350874185471200,1.26647119140625,4.567812919616699,0.8893647193908691,8.865352630615234
1687350874205581600,1.28658154296875,4.742903709411621,-0.9365472793579102,4.894436359405518
1687350874225691600,1.306691650390625,3.398362874984741,-2.459486961364746,2.140629291534424
1687350874245801700,1.3268017578125,1.4067363739013672,-3.9689865112304688,1.1313300132751465
1687350874265911800,1.346911865234375,-0.25683629512786865,-5.751718044281006,-0.22241497039794922
1687350874286022000,1.36702197265625,-0.9825493693351746,-7.198460102081299,-1.9134407043457031
1687350874306132000,1.387132080078125,-1.0594851970672607,-8.164999008178711,-3.518156051635742
1687350874326242000,1.407241943359375,-0.7964379191398621,-9.101503372192383,-3.4712939262390137
1687350874346352000,1.42735205078125,-0.05325399339199066,-11.113121032714844,-2.7128820419311523
1687350874366462200,1.447462158203125,0.5013816356658936,-15.91962718963623,-2.5583229064941406
1687350874386572300,1.467572265625,-0.08840525150299072,-23.305540084838867,-8.255959510803223
1687350874406682400,1.487682373046875,1.6097407341003418,-27.18650245666504,-24.749284744262695
1687350874426792700,1.507792724609375,6.08482027053833,-27.270544052124023,-49.60145568847656
1687350874446902500,1.527902587890625,7.457354545593262,-37.5070686340332,-51.91242980957031
1687350874467012600,1.5480126953125,1.1133582592010498,-54.063507080078125,-19.051939010620117
1687350874487122700,1.568122802734375,-3.5367045402526855,-48.674068450927734,40.51108932495117
1687350874507232800,1.588232666015625,7.912919521331787,-14.432257652282715,99.2474365234375
1687350874527342800,1.6083427734375,11.636394500732422,4.297647476196289,87.18063354492188
1687350874547453000,1.628452880859375,8.414790153503418,5.676752090454102,30.18014144897461
1687350874567563000,1.64856298828125,3.3878049850463867,9.368175506591797,3.739168167114258
1687350874587673000,1.668673095703125,4.768930435180664,9.111085891723633,8.197163581848145
1687350874607783200,1.688783203125,5.621097087860107,7.993291854858398,12.497823715209961
1687350874627893000,1.70889306640625,2.634636640548706,4.028768539428711,11.226430892944336
1687350874648003000,1.729003173828125,-2.103085994720459,-1.9541773796081543,6.868623733520508
1687350874668113200,1.749113037109375,-5.8111891746521,-5.833674907684326,1.8591666221618652
1687350874688223200,1.76922314453125,-5.671792984008789,-9.425506591796875,-1.4276823997497559
1687350874708333300,1.789333251953125,-3.0113744735717773,-11.681251525878906,-4.017002105712891
1687350874728443400,1.809443359375,-0.759939968585968,-14.307411193847656,-5.359440326690674
1687350874748553500,1.829553466796875,0.17513573169708252,-18.735355377197266,-5.202983856201172
1687350874768663600,1.84966357421875,0.24436762928962708,-28.352645874023438,-5.583148002624512
1687350874788773600,1.869773681640625,2.4018349647521973,-39.78411102294922,-17.99974822998047
1687350874808883500,1.889883544921875,12.008578300476074,-36.95048522949219,-64.2510757446289
1687350874828993500,1.90999365234375,15.21264362335205,-47.32231140136719,-81.78787994384766
1687350874849103600,1.930103515625,0.6577672958374023,-80.54800415039062,-26.504470825195312
1687350874869213400,1.95021337890625,-0.6147644519805908,-84.05781555175781,69.57474517822266
1687350874889323500,1.970323486328125,32.67090606689453,-26.473453521728516,140.0430145263672
1687350874909433600,1.99043359375,32.825565338134766,5.099588394165039,70.7805404663086
1687350874929543400,2.01054345703125,7.727136611938477,-4.673011302947998,-2.9968338012695312
1687350874949653500,2.030653564453125,-6.623502731323242,7.566621780395508,-23.736339569091797
1687350874969763600,2.050763671875,-5.132539749145508,5.08083438873291,-5.91545295715332
1687350874989873700,2.070873779296875,-0.5793259143829346,5.742450714111328,0.4398193359375
1687350875009983500,2.0909833984375,-1.58781898021698,2.3188304901123047,3.1306276321411133
1687350875030093600,2.111093505859375,-3.806323528289795,0.8228206634521484,1.7068166732788086
1687350875050203600,2.13120361328125,-5.263976573944092,0.7039413452148438,-1.9901008605957031
1687350875070313500,2.1513134765625,-4.665871620178223,0.9431369304656982,-3.2773823738098145
1687350875090423600,2.171423583984375,-1.7371838092803955,0.8896589279174805,-1.350693702697754
1687350875110533600,2.19153369140625,0.7498728036880493,0.7356040477752686,0.20116424560546875
1687350875130643500,2.2116435546875,1.843591332435608,0.5699961185455322,0.874755859375
1687350875150753500,2.23175341796875,1.5215492248535156,0.5624837875366211,0.4845590591430664
1687350875170863600,2.251863525390625,0.10074739158153534,0.515291690826416,0.24244117736816406
1687350875190973400,2.271973388671875,-1.4469646215438843,0.34766077995300293,0.22894287109375
1687350875211083500,2.29208349609375,-2.3053951263427734,0.09996223449707031,0.3010683059692383
1687350875231193600,2.312193603515625,-1.8683711290359497,-0.17603683471679688,0.2404460906982422
1687350875251303400,2.332303466796875,-0.6581324338912964,-0.3248143196105957,-0.39543628692626953
1687350875271413500,2.35241357421875,0.24422234296798706,-0.5517709255218506,-0.9878959655761719
1687350875291523600,2.372523681640625,0.9006069898605347,-0.6159536838531494,-1.1944942474365234
1687350875311633400,2.39263330078125,1.1547034978866577,-0.6444871425628662,-1.495924949645996
1687350875331743500,2.412743408203125,0.8187371492385864,-0.5347506999969482,-1.793564796447754
1687350875351853600,2.432853515625,0.19596987962722778,-0.38410282135009766,-1.6408720016479492
1687350875371963600,2.452963623046875,-0.16827073693275452,-0.2628183364868164,-1.0593442916870117
1687350875392073500,2.473073486328125,-0.3484741747379303,-0.10268163681030273,-0.5322084426879883
1687350875412183600,2.49318359375,-0.12502197921276093,-0.035552024841308594,-0.06868839263916016
1687350875432293600,2.513293701171875,0.27113035321235657,0.06407880783081055,0.13016796112060547
1687350875452403500,2.533403564453125,0.5316588878631592,0.26413679122924805,0.116424560546875
1687350875472513500,2.553513427734375,0.44029805064201355,0.36171913146972656,0.10948944091796875
1687350875492623600,2.57362353515625,0.17056310176849365,0.46725034713745117,-0.07285118103027344
1687350875512733700,2.593733642578125,-0.10836595296859741,0.43175411224365234,-0.0691518783569336
1687350875532843800,2.61384375,0.016394659876823425,0.39627671241760254,0.15471267700195312
1687350875552953900,2.633953857421875,0.3328087329864502,0.24823856353759766,0.14817333221435547
1687350875573064000,2.65406396484375,0.5051509737968445,0.06289315223693848,-0.09895801544189453
1687350875593174000,2.674174072265625,0.46363288164138794,-0.05901455879211426,-0.4393119812011719
1687350875613283800,2.694283935546875,0.34843820333480835,-0.030290603637695312,-0.4229249954223633
1687350875633394000,2.714393798828125,0.07785412669181824,-0.01886582374572754,-0.30620574951171875
1687350875653504000,2.73450390625,-0.1764252930879593,0.06506943702697754,-0.16581058502197266
1687350875673614000,2.754614013671875,-0.15668004751205444,0.08337545394897461,0.11673736572265625
1687350875693724200,2.77472412109375,-0.25660720467567444,0.22679519653320312,-0.19421958923339844
1687350875713834200,2.794834228515625,-0.532628059387207,0.4334752559661865,-0.2783966064453125
1687350875733944300,2.8149443359375,-0.7327913641929626,0.50173020362854,0.1545238494873047
1687350875754054400,2.835054443359375,-0.67940753698349,0.620999813079834,0.37567901611328125
1687350875774164500,2.85516455078125,-0.5920486450195312,0.8754806518554688,0.9970273971557617
1687350875794274300,2.8752744140625,-0.41130900382995605,0.9155752658843994,1.7643013000488281
1687350875814384400,2.89538427734375,-0.31026095151901245,1.0992376804351807,2.189385414123535
1687350875834494500,2.915494384765625,0.009032964706420898,1.540759563446045,4.017279624938965
1687350875854604500,2.9356044921875,1.2482789754867554,1.994605302810669,7.300044059753418
1687350875874714600,2.955714599609375,2.7107129096984863,1.9780182838439941,9.473672866821289
1687350875894824700,2.97582470703125,3.382716655731201,1.9148662090301514,10.672607421875
1687350875914934800,2.995934814453125,2.6872360706329346,1.5785431861877441,10.850784301757812
1687350875935044900,3.016044921875,1.2271896600723267,0.992957592010498,11.137231826782227
1687350875955155000,3.036155029296875,0.10341966152191162,-0.4279003143310547,11.33638858795166
1687350875975264800,3.0562646484375,-0.5774244070053101,-3.0519139766693115,8.827829360961914
1687350875995374800,3.076374755859375,-0.672325611114502,-6.01835298538208,4.438436508178711
1687350876015485000,3.09648486328125,-0.5529928803443909,-8.698452949523926,-0.582585334777832
1687350876035595000,3.116594970703125,-0.30064839124679565,-10.460359573364258,-4.860578536987305
1687350876055705000,3.136705078125,0.14443278312683105,-12.622201919555664,-5.454638957977295
1687350876075815200,3.156815185546875,0.6170506477355957,-18.397628784179688,-2.949498176574707
1687350876095925200,3.17692529296875,1.7723782062530518,-28.5489501953125,-2.532686471939087
1687350876116035300,3.197035400390625,4.586547374725342,-40.048248291015625,-14.066019058227539
1687350876136145400,3.2171455078125,8.768783569335938,-35.417293548583984,-54.270118713378906
1687350876156255200,3.237255126953125,8.723950386047363,-39.24822998046875,-68.21784210205078
1687350876176365300,3.257365234375,0.1310734748840332,-60.40897750854492,-41.839717864990234
1687350876196475400,3.277475341796875,-4.3801798820495605,-76.25884246826172,2.031766891479492
1687350876216585500,3.29758544921875,8.151323318481445,-58.79766082763672,98.78458404541016
1687350876236695300,3.3176953125,28.730228424072266,-5.959205627441406,129.81741333007812
1687350876256805400,3.337805419921875,40.556827545166016,-8.96396541595459,47.29271697998047
1687350876276915500,3.35791552734375,38.231109619140625,10.8623628616333,-8.98882007598877
1687350876297025500,3.378025634765625,22.385683059692383,8.513740539550781,4.592742919921875
1687350876317135400,3.39813525390625,8.471460342407227,8.332283020019531,19.917800903320312
1687350876337245400,3.418245361328125,0.28888988494873047,1.8373494148254395,20.30524444580078
1687350876357355500,3.43835546875,-4.606806755065918,-5.721023082733154,11.888935089111328
1687350876377465300,3.45846533203125,-5.762038707733154,-10.385563850402832,4.659785270690918
1687350876397575400,3.478575439453125,-4.695042133331299,-13.548078536987305,0.5427241325378418
1687350876417685500,3.498685546875,-2.076024055480957,-16.26801300048828,-2.1304051876068115
1687350876437795300,3.51879541015625,0.5596458911895752,-18.388872146606445,-2.937852144241333
1687350876457905400,3.538905517578125,2.227342128753662,-21.54345703125,-3.3075673580169678
1687350876478015500,3.559015380859375,3.6743781566619873,-26.304996490478516,-3.006863832473755
1687350876498125300,3.579125244140625,6.569239616394043,-33.848968505859375,-4.705007076263428
1687350876518235400,3.5992353515625,9.50566291809082,-41.61528778076172,-27.53221321105957
1687350876538345200,3.61934521484375,16.9769287109375,-39.41895294189453,-64.66065216064453
1687350876558455300,3.639455322265625,14.736539840698242,-59.355812072753906,-63.78151321411133
1687350876578565000,3.659565185546875,2.4043004512786865,-90.18024444580078,-31.178810119628906
1687350876598675200,3.67967529296875,8.644225120544434,-93.77253723144531,75.30267333984375
1687350876618785000,3.699784912109375,19.899494171142578,-13.387718200683594,147.1413116455078
1687350876638895000,3.71989501953125,9.170130729675293,6.449520111083984,61.58771896362305
1687350876659005000,3.7400048828125,-2.364582061767578,5.350748062133789,-1.71337890625
1687350876679115000,3.760114990234375,1.2712743282318115,10.989246368408203,3.7701940536499023
1687350876699224800,3.780224853515625,3.225027561187744,10.128165245056152,-3.521070957183838
1687350876719335000,3.8003349609375,-3.1521360874176025,5.4758620262146,-2.037435531616211
1687350876739444700,3.82044482421875,-6.5271315574646,2.7261736392974854,2.448622703552246
1687350876759554600,3.840554443359375,-4.799213886260986,0.5437166690826416,0.7186822891235352
1687350876779664600,3.86066455078125,-0.7558074593544006,-0.5058631896972656,-2.2297472953796387
1687350876799774500,3.8807744140625,2.510521173477173,-1.179591178894043,-3.5449256896972656
1687350876819884500,3.900884521484375,3.864910840988159,-0.7347202301025391,-3.934292793273926
1687350876839994400,3.920994384765625,3.074145793914795,-0.7360506057739258,-2.7402477264404297
1687350876860104400,3.9411044921875,1.70115327835083,-0.6353750228881836,-0.8537378311157227
1687350876880214300,3.96121435546875,0.48124992847442627,-0.5411758422851562,0.039412498474121094
1687350876900324400,3.981324462890625,-0.25623172521591187,-0.3841538429260254,0.5772628784179688
1687350876920434200,4.00143408203125,0.05173957347869873,-0.3256840705871582,0.0582733154296875
1687350876940544300,4.021544189453125,0.5319703221321106,0.0754082202911377,-0.26521873474121094
1687350876960654000,4.041654052734375,0.6511832475662231,0.1077122688293457,-0.28553009033203125
1687350876980764200,4.06176416015625,0.40801751613616943,-0.06415867805480957,-0.6753396987915039
1687350877000874000,4.0818740234375,0.41533827781677246,-0.003767728805541992,-1.0345993041992188
1687350877020984000,4.101984130859375,0.22256538271903992,-0.11611771583557129,-0.9051971435546875
1687350877041094000,4.122093994140625,-0.1524348258972168,-0.11906576156616211,-0.7169885635375977
1687350877061204000,4.142203857421875,-0.17706799507141113,0.0229189395904541,-0.47867774963378906
1687350877081313800,4.162313720703125,-0.3294565677642822,0.011693239212036133,-0.6722583770751953
1687350877101423900,4.182423828125,-0.49398481845855713,0.16874003410339355,-0.6935653686523438
1687350877121533700,4.20253369140625,-0.39081263542175293,0.24385547637939453,-0.49845314025878906
1687350877141643800,4.222643798828125,-0.08021101355552673,0.37282299995422363,-0.34203433990478516
1687350877161753600,4.242753662109375,-0.14315861463546753,0.5501956939697266,-0.09239673614501953
1687350877181863700,4.26286376953125,-0.5836334824562073,0.7659204006195068,-0.13645076751708984
1687350877201973500,4.282973388671875,-0.930694043636322,0.6693353652954102,-0.0054931640625
1687350877222083600,4.30308349609375,-0.7994809150695801,0.7514059543609619,-0.1682271957397461
1687350877242193400,4.323193359375,-0.4511064887046814,0.7066521644592285,-0.04694080352783203
1687350877262303500,4.343303466796875,-0.2667223811149597,0.5752134323120117,-0.22010517120361328
1687350877282413300,4.363413330078125,-0.18908290565013885,0.5289087295532227,-0.3505668640136719
1687350877302523400,4.3835234375,-0.06736009567975998,0.42421412467956543,-0.07495498657226562
1687350877322633500,4.403633544921875,-0.06148386001586914,0.29228854179382324,-0.12691497802734375
1687350877342743600,4.42374365234375,-0.04204648360610008,0.17786622047424316,-0.4842367172241211
1687350877362853400,4.443853271484375,-0.19079577922821045,0.12199687957763672,-0.4750099182128906
1687350877382963500,4.46396337890625,-0.32690608501434326,0.19759845733642578,0.23435020446777344
1687350877403073500,4.484073486328125,-0.023141413927078247,0.2047286033630371,0.46590232849121094
1687350877423183400,4.504183349609375,0.48083406686782837,0.3260791301727295,0.273956298828125
1687350877443293400,4.52429345703125,0.6937170028686523,0.31172990798950195,-0.12071895599365234
1687350877463403500,4.544403564453125,0.46018290519714355,0.19755887985229492,-0.5450296401977539
1687350877483513300,4.564513427734375,0.011262297630310059,0.3561234474182129,-0.7754945755004883
1687350877503623400,4.58462353515625,-0.5174511671066284,0.36327672004699707,-0.041169166564941406
1687350877523733500,4.6047333984375,-0.7767736315727234,0.7114081382751465,1.4222946166992188
1687350877543843300,4.62484326171875,-0.7866266965866089,1.1885347366333008,3.735806465148926
1687350877563953400,4.644953369140625,-0.5654087662696838,1.6380999088287354,6.783832550048828
1687350877584063500,4.6650634765625,-0.3385249674320221,2.0572659969329834,8.492856979370117
1687350877604173300,4.68517333984375,0.5735713243484497,2.542794942855835,11.080425262451172
1687350877624283400,4.705283447265625,2.0036044120788574,2.393411636352539,14.472869873046875
1687350877644393500,4.7253935546875,2.171168327331543,1.606377124786377,15.551225662231445
1687350877664503600,4.745503662109375,1.6252249479293823,-0.3358912467956543,12.066011428833008
1687350877684613400,4.76561328125,1.5287303924560547,-1.8682961463928223,7.006961822509766
1687350877704723500,4.785723388671875,1.4807019233703613,-3.572634696960449,3.9601597785949707
1687350877724833500,4.80583349609375,1.3101269006729126,-5.714146614074707,4.500119686126709
1687350877744943400,4.825943359375,0.5767016410827637,-9.431949615478516,2.8114771842956543
1687350877765053400,4.846053466796875,0.2993480861186981,-12.380025863647461,-0.5178072452545166
1687350877785163500,4.86616357421875,0.25923874974250793,-14.219135284423828,-2.7956275939941406
1687350877805273300,4.8862734375,-0.04207813739776611,-17.905282974243164,-1.6648191213607788
1687350877825383400,4.906383544921875,-0.23069584369659424,-25.983421325683594,1.4761834144592285
1687350877845493500,4.926493408203125,3.4012725353240967,-39.904945373535156,-2.295023202896118
1687350877865603300,4.946603271484375,13.661687850952148,-45.154052734375,-43.9232177734375
1687350877885713400,4.96671337890625,23.934295654296875,-51.463050842285156,-87.79670715332031
1687350877905823500,4.986823486328125,4.032644748687744,-91.5002670288086,-61.4237174987793
1687350877925933300,5.006933349609375,-11.37739372253418,-125.25148010253906,18.58216094970703
1687350877946043400,5.02704345703125,11.70236587524414,-77.06876373291016,121.63095092773438
1687350877966153500,5.047153564453125,66.08710479736328,-5.323915004730225,117.70838165283203
1687350877986263600,5.067263671875,52.14054870605469,-8.531061172485352,29.72903060913086
1687350878006373400,5.087373291015625,17.50735855102539,4.515918731689453,8.031732559204102
1687350878026483500,5.1074833984375,-1.8917789459228516,9.760188102722168,9.905332565307617
1687350878046593500,5.127593505859375,5.925345420837402,11.262293815612793,16.986434936523438
1687350878066703400,5.147703369140625,7.174408912658691,7.616238594055176,18.562911987304688
1687350878086813400,5.1678134765625,0.6458940505981445,0.246063232421875,13.234169960021973
1687350878106923500,5.187923583984375,-3.5602009296417236,-5.415973663330078,7.927290916442871
1687350878127033300,5.208033447265625,-5.100803375244141,-9.392034530639648,3.7733683586120605
1687350878147143400,5.228143310546875,-4.31466007232666,-12.426881790161133,0.05960369110107422
1687350878167253200,5.248253173828125,-1.581776738166809,-15.506166458129883,-1.8716323375701904
1687350878187363300,5.26836328125,0.48433202505111694,-17.7098331451416,-3.5729763507843018
1687350878207473200,5.28847314453125,1.3014929294586182,-20.192415237426758,-4.95100212097168
1687350878227583200,5.308583251953125,1.6405075788497925,-26.468265533447266,-3.807070732116699
1687350878247695400,5.3286953125,4.633435249328613,-37.5463752746582,-6.204587459564209
1687350878267803100,5.34880322265625,13.879768371582031,-40.71922302246094,-39.29449462890625
1687350878287911000,5.368910888671875,19.925378799438477,-36.98834228515625,-73.3403549194336
1687350878308018700,5.389018798828125,6.41544246673584,-55.635372161865234,-55.498191833496094
1687350878328127000,5.409126953125,-4.7444634437561035,-72.19792938232422,0.41539525985717773
1687350878348235300,5.4292353515625,5.168508529663086,-48.330135345458984,84.41120147705078
1687350878368344000,5.449343994140625,14.308842658996582,-0.15027368068695068,119.9044189453125
1687350878388453400,5.469453369140625,8.210597038269043,9.26790714263916,57.412071228027344
1687350878408563000,5.48956298828125,-1.60610032081604,6.749797821044922,4.366392135620117
1687350878428672800,5.5096728515625,2.9769058227539062,6.853475570678711,-6.364698886871338
1687350878448783000,5.529783203125,4.540135860443115,5.320094108581543,-7.476225852966309
1687350878468893700,5.549893798828125,0.8711643815040588,2.2917873859405518,-5.742504119873047
1687350878489004500,5.570004638671875,-1.7756173610687256,-0.1720900535583496,-0.9603137969970703
1687350878509115600,5.59011572265625,-2.30460262298584,-0.986243486404419,-1.8021550178527832
1687350878529227300,5.610227294921875,-2.4681267738342285,-0.9688265323638916,-5.340743064880371
1687350878549338600,5.630338623046875,-1.6545453071594238,-0.5352809429168701,-5.9604597091674805
1687350878569450200,5.6504501953125,-0.8624811768531799,-0.013803720474243164,-2.6132278442382812
1687350878589561900,5.670561767578125,-0.6808435320854187,0.14597201347351074,0.4443187713623047
1687350878609672200,5.690672119140625,-0.3385460376739502,-0.013508319854736328,1.0109529495239258
1687350878629782300,5.7107822265625,0.3708202838897705,-0.1219182014465332,-0.07756328582763672
1687350878649892000,5.73089208984375,0.975112795829773,0.15523314476013184,-0.7132863998413086
1687350878670002200,5.751002197265625,0.21764054894447327,0.469970703125,-0.12842082977294922
1687350878690112000,5.771112060546875,-0.5618541240692139,0.6902034282684326,0.9343881607055664
1687350878710222000,5.79122216796875,-0.7089561223983765,0.7660956382751465,1.5783100128173828
1687350878730332000,5.811331787109375,-0.48816099762916565,0.7410321235656738,1.0053167343139648
1687350878750442000,5.83144189453125,-0.33885541558265686,0.5192699432373047,-0.0811309814453125
1687350878770551800,5.8515517578125,0.2984904646873474,0.3651719093322754,-0.15183353424072266
1687350878790662000,5.871661865234375,0.6625365018844604,0.35869812965393066,0.6799049377441406
1687350878810771700,5.891771728515625,0.3766462802886963,0.22035479545593262,0.18897533416748047
1687350878830881800,5.9118818359375,-0.13334137201309204,0.026452064514160156,-1.694514274597168
1687350878850991600,5.93199169921875,-0.8321141004562378,0.21229124069213867,-2.2907190322875977
1687350878871101700,5.952101806640625,-1.3081458806991577,0.36209917068481445,-1.6179494857788086
1687350878891211500,5.97221142578125,-1.50596284866333,0.48151278495788574,-1.1503715515136719
1687350878911321300,5.9923212890625,-0.9251079559326172,0.46998047828674316,-0.5487165451049805
1687350878931431400,6.012431396484375,-0.10291725397109985,0.4933736324310303,-0.3090991973876953
1687350878951541200,6.032541259765625,0.12241062521934509,0.5575282573699951,-0.36829090118408203
1687350878971651000,6.052651123046875,-0.12418526411056519,0.49570608139038086,-0.6662673950195312
1687350878991761000,6.072760986328125,-0.40136027336120605,0.46396923065185547,-0.784123420715332
1687350879011871000,6.09287109375,-0.3671630620956421,0.47557640075683594,-0.22048377990722656
1687350879031980800,6.112980712890625,-0.09790116548538208,0.4575960636138916,0.2585411071777344
1687350879052090600,6.133090576171875,-0.02798604965209961,0.6031723022460938,0.3753013610839844
1687350879072200400,6.153200439453125,-0.3645014464855194,0.7171802520751953,0.3774232864379883
1687350879092310500,6.173310546875,-0.6825979948043823,1.013592004776001,0.7597036361694336
1687350879112420400,6.19342041015625,-0.7665596604347229,1.5833826065063477,1.766366958618164
1687350879132532200,6.2135322265625,-0.9946063160896301,2.480437755584717,4.017238616943359
1687350879152640800,6.233640869140625,-0.6704000234603882,3.0318236351013184,6.714999198913574
1687350879172749300,6.253749267578125,0.1391192078590393,3.167613983154297,6.682221412658691
1687350879192857900,6.27385791015625,0.49846258759498596,3.0123400688171387,4.579531669616699
1687350879212966700,6.293966552734375,0.0698874294757843,3.069794178009033,3.46759033203125
1687350879233075500,6.314075439453125,-0.9197359085083008,3.1852264404296875,4.887294769287109
1687350879253184500,6.3341845703125,-1.3744114637374878,2.6981759071350098,7.178295135498047
1687350879273293800,6.3542939453125,-0.32697761058807373,1.9257845878601074,8.782386779785156
1687350879293403600,6.374403564453125,1.120503544807434,0.5308284759521484,9.113422393798828
1687350879313513500,6.394513427734375,2.164706230163574,-0.7886257171630859,8.171333312988281
1687350879333623600,6.41462353515625,2.1735265254974365,-2.529801845550537,6.365294456481934
1687350879353734000,6.43473388671875,1.9035429954528809,-4.3772711753845215,4.559590816497803
1687350879373844500,6.454844482421875,1.5586611032485962,-6.47580623626709,3.4741318225860596
1687350879393955300,6.474955322265625,1.0811933279037476,-9.186777114868164,1.5075714588165283
1687350879414066200,6.495066162109375,1.0166178941726685,-11.11648178100586,-1.100143551826477
1687350879434177000,6.515177001953125,0.395688533782959,-12.857831954956055,-1.6308727264404297
1687350879454288100,6.5352880859375,-0.4316094219684601,-16.296279907226562,-0.9522698521614075
1687350879474399000,6.55539892578125,-0.5725456476211548,-22.03687286376953,-0.7088316679000854
1687350879494509600,6.575509521484375,0.3638322353363037,-30.97412872314453,-3.0773255825042725
1687350879514619400,6.595619384765625,0.8654688596725464,-39.629150390625,-21.211692810058594
1687350879534729200,6.615729248046875,7.3094482421875,-37.99006271362305,-48.247352600097656
1687350879554839300,6.63583935546875,9.743385314941406,-48.05669403076172,-46.611576080322266
1687350879574949000,6.65594921875,-2.5201680660247803,-59.30425262451172,-19.9053897857666
1687350879595059000,6.676058837890625,-20.200883865356445,-55.132164001464844,25.844011306762695
1687350879615169000,6.6961689453125,-14.494020462036133,-22.771116256713867,74.56307983398438
1687350879635278800,6.71627880859375,4.0199666023254395,1.0555756092071533,76.83324432373047
1687350879655388700,6.736388671875,25.600685119628906,7.0716142654418945,67.26457977294922
1687350879675498500,6.75649853515625,37.218379974365234,5.3281707763671875,41.280860900878906
1687350879695608600,6.776608642578125,41.240150451660156,7.460634231567383,19.729785919189453
1687350879715718400,6.796718505859375,24.547067642211914,5.894798278808594,14.598590850830078
1687350879735828200,6.816828125,7.431678295135498,3.541719913482666,15.953113555908203
1687350879755938000,6.83693798828125,-2.838649272918701,-1.5878849029541016,14.693235397338867
1687350879776048000,6.857048095703125,-10.887362480163574,-7.765897274017334,9.807872772216797
1687350879796158000,6.877157958984375,-12.551729202270508,-12.736780166625977,5.660682678222656
1687350879816267800,6.897267822265625,-8.705236434936523,-17.235759735107422,1.5022177696228027
1687350879836377900,6.9173779296875,-4.772311687469482,-20.486408233642578,-1.0160356760025024
1687350879856487700,6.93748779296875,-1.5885447263717651,-25.1649227142334,0.3544173836708069
1687350879876597500,6.957597412109375,1.8359320163726807,-34.86032485961914,1.282690405845642
1687350879896707300,6.977707275390625,7.454753875732422,-46.14369201660156,-5.822993278503418
1687350879916817400,6.9978173828125,13.498231887817383,-47.351802825927734,-39.820960998535156
1687350879936927200,7.01792724609375,21.00058364868164,-48.05458068847656,-68.99537658691406
1687350879957037000,7.038037109375,12.41549015045166,-69.58967590332031,-49.57332229614258
1687350879977147100,7.058147216796875,-9.255637168884277,-87.641845703125,-2.6181511878967285
1687350879997257000,7.078257080078125,-19.13447380065918,-63.05681228637695,91.97349548339844
1687350880017366800,7.09836669921875,-1.0501017570495605,-8.299562454223633,121.5863037109375
1687350880037476600,7.1184765625,38.3140869140625,-0.9183773994445801,59.61263656616211
1687350880057586700,7.138586669921875,39.78688049316406,9.351137161254883,0.812077522277832
1687350880077696500,7.158696533203125,16.968544006347656,2.4521210193634033,2.255250930786133
1687350880097806300,7.178806396484375,2.677626371383667,4.175217628479004,-2.836650848388672
1687350880117916400,7.19891650390625,2.615938186645508,5.128993988037109,-6.0044355392456055
1687350880138026200,7.219026123046875,-0.8565254807472229,3.881113052368164,-2.0513052940368652
1687350880158136000,7.239135986328125,-5.709305763244629,2.1864020824432373,1.394454002380371
1687350880178246000,7.259245849609375,-5.65811824798584,1.7158257961273193,2.322551727294922
1687350880198356000,7.27935595703125,-2.814959764480591,1.2280757427215576,-0.2837667465209961
1687350880218465800,7.2994658203125,-1.0422947406768799,0.9365622997283936,-2.614895820617676
1687350880238575600,7.31957568359375,-0.7466241121292114,0.1914515495300293,-2.6486902236938477
1687350880258685400,7.339685546875,-0.3434685468673706,-0.3682973384857178,-2.2046637535095215
1687350880278795500,7.35979541015625,0.4914880394935608,-0.7468152046203613,-2.4090027809143066
1687350880298905300,7.3799052734375,1.234805941581726,-0.6824421882629395,-2.4793920516967773
1687350880319015200,7.40001513671875,1.6320176124572754,-0.17959380149841309,-1.2597074508666992
1687350880339125200,7.420125244140625,1.0160465240478516,0.07077550888061523,0.19224071502685547
1687350880359235000,7.440235107421875,0.26273113489151,0.560370683670044,1.4859352111816406
1687350880379345000,7.460344970703125,-0.12374043464660645,0.6407670974731445,1.7539243698120117
1687350880399454700,7.480454833984375,0.04176211357116699,0.7753090858459473,0.8275632858276367
1687350880419564800,7.500564697265625,0.13557523488998413,0.7943179607391357,-0.25314998626708984
1687350880439674600,7.520674560546875,0.048113346099853516,0.7721939086914062,-0.7583217620849609
1687350880459784400,7.540784423828125,-0.11316949129104614,0.6803901195526123,-0.8354635238647461
1687350880479894500,7.56089453125,-0.4878339171409607,0.6648507118225098,-0.34499073028564453
1687350880500004400,7.58100439453125,-0.45451292395591736,0.5438497066497803,-0.4001150131225586
1687350880520114200,7.6011142578125,-0.5161374807357788,0.5528318881988525,-0.6553144454956055
1687350880540224000,7.62122412109375,-0.4549424648284912,0.41057586669921875,-0.6371574401855469
1687350880560334000,7.641333984375,-0.5777113437652588,0.4319455623626709,-0.8707847595214844
1687350880580444000,7.66144384765625,-0.48114001750946045,0.43796706199645996,-0.5331048965454102
1687350880600553700,7.6815537109375,-0.5845115184783936,0.4686915874481201,-0.4959726333618164
1687350880620663800,7.701663818359375,-0.43161270022392273,0.40823888778686523,-0.6240978240966797
1687350880640773600,7.721773681640625,-0.0499078631401062,0.3848884105682373,-0.8260679244995117
1687350880660883500,7.741883544921875,0.26851242780685425,0.42356348037719727,-0.6715869903564453
1687350880680993300,7.7619931640625,0.35772883892059326,0.3512604236602783,-0.34970569610595703
1687350880701106000,7.78210595703125,0.6514698266983032,0.3943040370941162,-0.053915977478027344
1687350880721213700,7.802213623046875,0.704375147819519,0.43757128715515137,-0.18468379974365234
1687350880741321700,7.82232177734375,0.3768857717514038,0.6751301288604736,-0.37746429443359375
1687350880761429800,7.8424296875,-0.05363357067108154,1.204864740371704,-0.2539939880371094
1687350880781538000,7.8625380859375,-0.3536947965621948,1.8502404689788818,0.49996185302734375
1687350880801646600,7.882646484375,-0.3042553663253784,2.672217845916748,1.896347999572754
1687350880821755400,7.90275537109375,0.21568727493286133,3.441591739654541,3.6051454544067383
1687350880841864700,7.92286474609375,1.5450444221496582,3.9467201232910156,5.283045768737793
1687350880861974000,7.94297412109375,2.9275264739990234,4.274302959442139,7.293760299682617
1687350880882084000,7.963083984375,3.466566562652588,4.037308692932129,9.374831199645996
1687350880902197000,7.983197021484375,3.873260974884033,3.103945732116699,12.43603801727295
1687350880922310000,8.003309814453125,4.8205976486206055,1.5318174362182617,14.028576850891113
1687350880942422500,8.023422607421875,4.3939104080200195,-0.36225414276123047,12.271929740905762
1687350880962532600,8.04353271484375,2.692124605178833,-2.303849220275879,8.980916976928711
1687350880982642400,8.063642333984374,1.0273394584655762,-4.369719505310059,5.962490558624268
1687350881002752300,8.083752197265625,-0.07756996154785156,-6.805032253265381,3.267604351043701
1687350881022862000,8.103862060546875,-0.8902015686035156,-9.233317375183105,0.7971286773681641
1687350881042972200,8.12397216796875,-1.8407925367355347,-11.225761413574219,-1.85550856590271
1687350881063082000,8.14408203125,-2.356029510498047,-12.635795593261719,-3.968817949295044
1687350881083191800,8.16419189453125,-2.0046119689941406,-14.154020309448242,-4.384225845336914
1687350881103301600,8.184301513671874,-1.290642261505127,-18.231264114379883,-2.956749439239502
1687350881123411500,8.204411376953125,-0.03175222873687744,-26.700298309326172,-2.3898839950561523
1687350881143521300,8.224521240234376,1.3093127012252808,-36.99376678466797,-7.25640869140625
1687350881163631000,8.244631103515625,5.647686958312988,-37.482460021972656,-36.24816131591797
1687350881183741000,8.264740966796875,13.125603675842285,-37.85825729370117,-65.82051849365234
1687350881203850800,8.284850830078126,5.859377861022949,-58.73236846923828,-49.911468505859375
1687350881223960800,8.3049609375,-10.638997077941895,-80.15909576416016,-13.225419998168945
1687350881244070700,8.325070556640625,-12.997261047363281,-75.41114807128906,65.04983520507812
1687350881264180500,8.345180419921874,20.50461769104004,-21.643421173095703,125.58756256103516
1687350881284290300,8.365290283203125,57.72855758666992,-3.0256478786468506,76.07013702392578
1687350881304400100,8.385400146484375,34.180511474609375,4.222099304199219,17.755977630615234
1687350881324510000,8.405510009765624,6.35813045501709,6.3890767097473145,11.343132019042969
1687350881344619800,8.425619873046875,4.429818153381348,8.917835235595703,14.19138240814209
1687350881364729600,8.4457294921875,8.34211254119873,8.789603233337402,15.346625328063965
1687350881384839400,8.46583935546875,5.019573211669922,5.150439739227295,14.578996658325195
1687350881404949200,8.48594921875,-0.998520016670227,0.08292961120605469,11.213908195495605
1687350881425059000,8.50605908203125,-4.165717124938965,-4.807242393493652,6.807784080505371
1687350881445169000,8.5261689453125,-3.7306785583496094,-8.486162185668945,1.0390067100524902
1687350881465279000,8.546279052734375,-2.2185218334198,-10.222731590270996,-2.191162109375
1687350881485388800,8.566388916015624,-1.1327446699142456,-11.886820793151855,-3.4894115924835205
1687350881505498600,8.58649853515625,-0.47647106647491455,-13.396687507629395,-4.28934383392334
1687350881525608400,8.6066083984375,-0.6698252558708191,-14.349769592285156,-4.181072235107422
1687350881545718300,8.62671826171875,-1.1383695602416992,-15.949460983276367,-3.690431594848633
1687350881565828000,8.646828125,-0.6778271794319153,-18.535438537597656,-2.9801363945007324
1687350881585938000,8.66693798828125,1.135192632675171,-23.193695068359375,-0.646497905254364
1687350881606047700,8.6870478515625,3.4814438819885254,-32.18156433105469,0.11049026250839233
1687350881626157600,8.707157470703125,6.644079208374023,-39.12664794921875,-14.830903053283691
1687350881646267400,8.727267333984376,15.635529518127441,-31.734169006347656,-61.32063674926758
1687350881666377200,8.747377197265624,7.943103790283203,-45.10637664794922,-72.05126190185547
1687350881686487000,8.767487060546875,-3.2077364921569824,-78.932373046875,-32.80884552001953
1687350881706596900,8.787596923828126,5.350898742675781,-94.3609848022461,56.3515739440918
1687350881726707000,8.80770703125,18.542531967163086,-20.58736228942871,144.57765197753906
1687350881746816800,8.827816650390625,33.99855422973633,5.67430305480957,78.51599884033203
1687350881766926600,8.847926513671876,27.862407684326172,4.503154754638672,5.807025909423828
1687350881787036400,8.868036376953125,2.8636207580566406,7.07878303527832,-8.854849815368652
1687350881807146200,8.888146240234375,-6.6795878410339355,8.509392738342285,-2.3823256492614746
1687350881827256300,8.90825634765625,-2.39943265914917,7.646428108215332,-0.6497430801391602
1687350881847366100,8.9283662109375,-4.429492473602295,4.739056587219238,-1.2076349258422852
1687350881867476000,8.94847607421875,-7.851007461547852,2.8810315132141113,-1.624943733215332
1687350881887585800,8.968585693359374,-6.403392314910889,1.1685881614685059,-2.387937068939209
1687350881907695900,8.98869580078125,-1.5494990348815918,0.17695951461791992,-2.8330459594726562
1687350881927805700,9.0088056640625,1.988857626914978,-0.4871833324432373,-2.0626754760742188
1687350881947915500,9.02891552734375,3.2091526985168457,-0.8500669002532959,-1.273493766784668
1687350881968025300,9.049025390625,2.522512435913086,-1.2868914604187012,-1.2371206283569336
1687350881988135400,9.069135498046874,1.2682608366012573,-1.2761707305908203,-1.5750913619995117
1687350882008245200,9.089245361328125,0.8604901432991028,-1.0433056354522705,-1.1948461532592773
1687350882028355000,9.10935498046875,1.3614245653152466,-0.7038776874542236,-0.3719167709350586
1687350882048465200,9.129465087890624,1.9200061559677124,0.04475069046020508,0.5839939117431641
1687350882068575000,9.149574951171875,1.5403778553009033,0.09562540054321289,0.4699888229370117
1687350882088684800,9.169684814453126,0.8007517457008362,0.4209291934967041,-0.42949771881103516
1687350882108794600,9.189794677734374,0.16846482455730438,0.3538939952850342,-0.7349643707275391
1687350882128904700,9.20990478515625,0.06212678551673889,0.4016916751861572,-0.9900979995727539
1687350882149014500,9.2300146484375,0.3489125967025757,0.2922861576080322,-1.078110694885254
1687350882169124400,9.250124267578125,0.15698876976966858,0.5199308395385742,-0.45364952087402344
1687350882189234400,9.270234375,-0.44337454438209534,0.5508706569671631,0.4456977844238281
1687350882209344300,9.29034423828125,-0.7116144895553589,0.5536291599273682,0.33174800872802734
1687350882229454000,9.3104541015625,-0.5049139261245728,0.46743059158325195,-0.6120510101318359
1687350882249564000,9.33056396484375,-0.30515071749687195,0.6588830947875977,-1.1891651153564453
1687350882269674000,9.350674072265624,0.09672501683235168,0.7573506832122803,-0.8479194641113281
1687350882289783800,9.37078369140625,-0.07638439536094666,0.742042064666748,-0.42241954803466797
1687350882309893600,9.3908935546875,-0.5156107544898987,0.8830029964447021,-0.2686290740966797
1687350882330003700,9.411003662109374,-0.779608428478241,0.665212869644165,-0.10823726654052734
1687350882350113500,9.431113525390625,-0.710078239440918,0.6525800228118896,-0.242340087890625
1687350882370223400,9.451223388671876,-0.41032081842422485,0.48939943313598633,-0.24686241149902344
1687350882390333200,9.471333251953125,-0.05312296748161316,0.4432373046875,-0.3653430938720703
1687350882410443300,9.491443359375,0.26430708169937134,0.3521392345428467,-0.31246089935302734
1687350882430553000,9.511552978515626,0.4712079167366028,0.26491308212280273,-0.1827392578125
1687350882450663000,9.531662841796875,0.35300391912460327,0.24951648712158203,-0.30165863037109375
1687350882470772700,9.551772705078125,0.19155412912368774,0.25810980796813965,-0.3193836212158203
1687350882490882800,9.5718828125,-0.1632784605026245,0.3057868480682373,-0.5940990447998047
1687350882510992600,9.59199267578125,-0.4229384660720825,0.42952895164489746,-0.7549962997436523
1687350882531102500,9.6121025390625,-0.6186253428459167,0.47319579124450684,-0.5780086517333984
1687350882551212500,9.632212646484374,-0.5185213685035706,0.6760945320129395,-0.4295825958251953
1687350882571322400,9.652322265625,-0.4871744215488434,0.7632582187652588,-0.15209674835205078
1687350882591435300,9.672435302734375,-0.5357029438018799,1.082179069519043,0.19240665435791016
1687350882611542000,9.6925419921875,-0.5065453052520752,1.5598909854888916,1.1368045806884766
1687350882631649000,9.71264892578125,-0.36626800894737244,2.2689669132232666,3.3569841384887695
1687350882651756300,9.73275634765625,0.23798620700836182,3.1485204696655273,7.178062438964844
1687350882671863800,9.75286376953125,1.1482510566711426,3.561891794204712,12.023837089538574
1687350882691971600,9.7729716796875,1.297998309135437,3.2533602714538574,13.827876091003418
1687350882712080000,9.793079833984375,1.7411229610443115,2.577587366104126,12.503058433532715
1687350882732188700,9.813188720703126,2.7067694664001465,1.950246810913086,11.851856231689453
1687350882752298000,9.833298095703125,2.6748995780944824,0.7773618698120117,10.135415077209473
1687350882772407800,9.85340771484375,1.6166691780090332,-0.9161357879638672,6.591041564941406
1687350882792518100,9.87351806640625,0.7137191295623779,-2.7346229553222656,3.84560489654541
1687350882812629000,9.89362890625,0.34409570693969727,-4.868930816650391,2.271777629852295
1687350882832740000,9.913739990234374,-0.30188965797424316,-6.846671104431152,1.2951126098632812
1687350882852851700,9.933851806640625,-0.6889013051986694,-9.178189277648926,-0.08757162094116211
1687350882872963600,9.953963623046874,-0.4770808815956116,-10.88753604888916,-2.2550532817840576
1687350882893075500,9.974075439453125,-0.3375198245048523,-11.721529006958008,-3.834258794784546
1687350882913187300,9.994187255859375,0.034549906849861145,-13.342633247375488,-3.3174262046813965
1687350882933299500,10.014299560546876,0.4787976145744324,-18.231891632080078,-1.3237416744232178
1687350882953409500,10.034409423828125,1.7256290912628174,-27.084617614746094,-0.38823699951171875
1687350882973519400,10.054519287109375,6.901084899902344,-38.57774353027344,-7.1845550537109375
1687350882993629200,10.074629150390624,16.811870574951172,-43.15394592285156,-38.12350082397461
1687350883013739000,10.094739013671875,18.63511848449707,-45.1219367980957,-67.76520538330078
1687350883033848800,10.114848876953126,0.1059103012084961,-69.19821166992188,-43.4644660949707
1687350883053958700,10.134958740234374,-15.570491790771484,-90.6969985961914,4.369670391082764
1687350883074068500,10.155068359375,-5.917254447937012,-70.19640350341797,86.07260131835938
1687350883094178300,10.17517822265625,34.8592529296875,-16.70682716369629,115.60604858398438
1687350883114288400,10.195288330078125,60.56020736694336,1.720943570137024,54.73487091064453
1687350883134398200,10.215398193359375,28.37127685546875,3.797412157058716,20.872295379638672
1687350883154508000,10.235508056640626,4.928607940673828,9.668278694152832,14.421719551086426
1687350883174617900,10.255617919921875,8.834712982177734,12.69996452331543,11.545262336730957
1687350883194727700,10.275727783203125,10.744781494140625,11.407094955444336,16.869823455810547
1687350883214837500,10.29583740234375,4.843587875366211,7.1691083908081055,20.082660675048828
1687350883234947300,10.315947265625,-1.6318340301513672,-0.14128732681274414,17.826202392578125
1687350883255057200,10.33605712890625,-4.173670768737793,-7.245815753936768,10.212150573730469
1687350883275167000,10.3561669921875,-3.471371650695801,-11.849754333496094,2.767545700073242
1687350883295276800,10.37627685546875,-1.63486647605896,-14.353800773620605,-0.6370129585266113
1687350883315386600,10.39638671875,-0.5088042616844177,-16.953458786010742,-1.8809809684753418
1687350883335496400,10.416496337890624,0.49273955821990967,-19.563974380493164,-1.3872548341751099
1687350883355608300,10.4366083984375,1.0940544605255127,-23.249832153320312,-1.3097529411315918
1687350883375716000,10.456716064453126,1.456505537033081,-28.675899505615234,-0.8107494115829468
1687350883395824000,10.47682421875,3.5310182571411133,-37.64033508300781,-0.025209784507751465
1687350883415932400,10.496932373046874,8.035619735717773,-44.14634704589844,-17.709917068481445
1687350883436040700,10.517040771484375,20.498104095458984,-34.99423599243164,-50.39435577392578
1687350883456149200,10.537149169921875,18.174928665161133,-44.255043029785156,-57.21192932128906
1687350883476258000,10.557258056640626,0.06355762481689453,-67.4813003540039,-37.08900451660156
1687350883496367000,10.5773671875,-4.918438911437988,-94.58772277832031,-4.456433296203613
1687350883516476700,10.5974765625,8.87155532836914,-82.77458190917969,104.43270874023438
1687350883536586200,10.617586181640625,37.66136169433594,-3.1578478813171387,138.000244140625
1687350883556696300,10.6376962890625,39.22023010253906,-5.405091285705566,46.999053955078125
1687350883576806700,10.657806640625,17.50181007385254,2.7814266681671143,-12.166702270507812
1687350883596917200,10.677917236328126,0.14995302259922028,7.732691764831543,-10.337176322937012
1687350883617028000,10.698028076171875,-2.019637107849121,9.653044700622559,-2.241419792175293
1687350883637139200,10.71813916015625,-2.1932928562164307,6.663639545440674,7.389040946960449
1687350883657250300,10.738250244140625,-4.584683418273926,3.899664878845215,9.56326675415039
1687350883677361400,10.758361328125,-5.931467056274414,1.6859254837036133,1.0335493087768555
1687350883697472500,10.778472412109375,-4.718959331512451,0.8564963340759277,-5.832915782928467
1687350883717583400,10.798583251953126,-1.5328212976455688,0.5433485507965088,-5.800339221954346
1687350883737693200,10.818693115234375,0.8951336741447449,0.43538475036621094,-3.188042640686035
1687350883757803000,10.838802978515625,1.5356664657592773,-0.024778366088867188,-2.2112388610839844
1687350883777912800,10.858912841796876,0.8990330696105957,-0.09750080108642578,-2.2411088943481445
1687350883798022700,10.879022705078125,-0.5427432060241699,-0.4174690246582031,-2.4551920890808105
1687350883818132200,10.89913232421875,-1.4246549606323242,-0.30484986305236816,-2.34903621673584
1687350883838242000,10.919241943359374,-1.26701819896698,-0.19029545783996582,-0.7844076156616211
1687350883858351900,10.939351806640625,0.14334291219711304,-0.15870213508605957,0.7403335571289062
1687350883878461700,10.959461669921875,1.397916316986084,0.049695491790771484,1.1990165710449219
1687350883898571500,10.979571533203124,1.5085493326187134,-0.11053204536437988,0.41080284118652344
1687350883918681300,10.999681396484375,0.7668260335922241,-0.0034461021423339844,-0.9489479064941406
1687350883938791200,11.019791259765626,0.05593031644821167,-0.0022084712982177734,-1.5804052352905273
1687350883958901000,11.03990087890625,-0.3947087824344635,0.1356351375579834,-1.7662343978881836
1687350883979010600,11.060010498046875,-0.2534712851047516,0.26021623611450195,-1.2679452896118164
1687350883999120400,11.080120361328126,-0.13851651549339294,0.4210548400878906,-0.743311882019043
1687350884019230200,11.100230224609374,-0.2110692262649536,0.5491716861724854,-0.6394634246826172
1687350884039340000,11.120340087890625,-0.2890889048576355,0.600337028503418,-0.6978511810302734
1687350884059449900,11.140449951171876,-0.3762125074863434,0.7081470489501953,-0.7431840896606445
1687350884079559700,11.1605595703125,-0.3502027988433838,0.7409069538116455,-0.666560173034668
1687350884099669500,11.18066943359375,-0.17080125212669373,0.839157223701477,-0.29191017150878906
1687350884119779300,11.200779296875,0.008623898029327393,0.9857312440872192,0.0826883316040039
1687350884139889000,11.220888916015625,-0.14862072467803955,1.04306960105896,0.2382974624633789
1687350884159998700,11.240998779296875,-0.0757017731666565,0.9544061422348022,0.36309146881103516
1687350884180108500,11.261108642578124,0.20652234554290771,0.8947166204452515,0.11433124542236328
1687350884200218400,11.28121826171875,0.4470979869365692,0.7494893074035645,-0.24155426025390625
1687350884220328200,11.301328125,0.6112010478973389,0.6353898048400879,-0.2570056915283203
1687350884240438000,11.32143798828125,0.4857306182384491,0.5592665672302246,-0.3380556106567383
1687350884260547800,11.3415478515625,0.09883338212966919,0.48012304306030273,-0.34215450286865234
1687350884280657700,11.36165771484375,-0.08657163381576538,0.39223265647888184,-0.29307079315185547
1687350884300767200,11.381767333984374,0.03934624791145325,0.30133843421936035,-0.5202150344848633
1687350884320877000,11.401876953125,0.1467761993408203,0.30384182929992676,-0.7627668380737305
1687350884340987000,11.42198681640625,0.27911821007728577,0.36846494674682617,-0.39574146270751953
1687350884361096700,11.4420966796875,0.26909226179122925,0.43976569175720215,-0.18116283416748047
1687350884381206500,11.46220654296875,-0.057368725538253784,0.6673774719238281,0.04375648498535156
1687350884401316400,11.48231640625,-0.6510523557662964,1.0388619899749756,1.600539207458496
1687350884421426200,11.50242626953125,-1.2128419876098633,1.5136158466339111,4.909823417663574
1687350884441536000,11.522535888671875,-0.048935890197753906,2.044736623764038,8.042081832885742
1687350884461645600,11.5426455078125,1.2012147903442383,2.8520946502685547,10.402074813842773
1687350884481755400,11.56275537109375,1.1261261701583862,3.07295298576355,10.839632987976074
1687350884501865200,11.582865234375,1.7128970623016357,3.1702864170074463,11.17369556427002
1687350884521975000,11.60297509765625,2.720456123352051,2.7384276390075684,11.849344253540039
1687350884542084900,11.6230849609375,3.8207263946533203,1.7395563125610352,11.525239944458008
1687350884562194700,11.643194580078125,3.6477925777435303,0.18671131134033203,8.60759162902832
1687350884582304500,11.663304443359374,2.278905153274536,-1.850825309753418,5.417786598205566
1687350884602414300,11.683414306640625,1.053682565689087,-4.179891586303711,4.126992702484131
1687350884622524000,11.70352392578125,0.3414083421230316,-6.906010627746582,3.3147482872009277
1687350884642633700,11.7236337890625,-0.10963413119316101,-10.318659782409668,1.1445741653442383
1687350884662743600,11.74374365234375,-0.10846108198165894,-12.850024223327637,-2.0772323608398438
1687350884682853400,11.763853271484376,-0.14774012565612793,-15.30861759185791,-3.779639720916748
1687350884702963200,11.783963134765624,0.3858346939086914,-19.802722930908203,-2.3480193614959717
1687350884723073000,11.804072998046875,1.1692359447479248,-29.119739532470703,-1.0177253484725952
1687350884743182800,11.824182861328126,6.562295436859131,-41.25716781616211,-9.859003067016602
1687350884763292700,11.844292724609375,21.356624603271484,-42.95928192138672,-45.62116622924805
1687350884783402500,11.864402587890625,24.59207534790039,-47.434444427490234,-67.0136947631836
1687350884803512300,11.88451220703125,9.371829986572266,-69.13288116455078,-39.30698013305664
1687350884823622100,11.9046220703125,-7.2120490074157715,-82.38977813720703,-4.146446228027344
1687350884843732000,11.92473193359375,-11.041755676269531,-72.01541900634766,55.179656982421875
1687350884863842000,11.944842041015624,20.662317276000977,-25.88324737548828,114.9671630859375
1687350884883951900,11.964951904296875,50.9887580871582,-5.126424312591553,81.03565979003906
1687350884904061700,11.985061767578125,32.76084899902344,2.8724913597106934,28.517969131469727
1687350884924171500,12.005171630859374,8.277297019958496,7.630036354064941,17.536291122436523
1687350884944281300,12.02528125,7.0616559982299805,11.273642539978027,16.63037109375
1687350884964391200,12.04539111328125,14.56763744354248,11.053529739379883,17.0424747467041
1687350884984501000,12.0655009765625,10.440199851989746,7.143117904663086,17.4479923248291
1687350885004610800,12.08561083984375,0.6892149448394775,1.9449524879455566,16.080310821533203
1687350885024720600,12.105720703125,-5.703608512878418,-4.488670349121094,13.445826530456543
1687350885044830500,12.12583056640625,-6.385373115539551,-9.720805168151855,8.462388038635254
1687350885064940300,12.145940185546875,-3.5879218578338623,-14.397217750549316,2.5564064979553223
1687350885085050000,12.166050048828126,-1.3146040439605713,-17.15774917602539,-1.6930592060089111
1687350885105160000,12.186159912109375,0.301222562789917,-19.142650604248047,-2.0189642906188965
1687350885125270000,12.20627001953125,1.1498048305511475,-21.714767456054688,-1.6097720861434937
1687350885145379800,12.2263798828125,1.2433286905288696,-25.3475341796875,-1.7342315912246704
1687350885165489700,12.24648974609375,0.85444176197052,-30.343996047973633,2.811976432800293
1687350885185599500,12.266599609375,1.6240427494049072,-40.68614196777344,8.537665367126465
1687350885205709300,12.286709228515624,3.7284507751464844,-46.557682037353516,-3.2578186988830566
1687350885225819100,12.306819091796875,16.3778133392334,-35.29056930541992,-40.43990707397461
1687350885245929000,12.326928955078126,29.444250106811523,-37.22306823730469,-65.44815063476562
1687350885266038800,12.347038818359374,12.047062873840332,-59.68166732788086,-43.50579833984375
1687350885286148600,12.367148681640625,-9.569931030273438,-84.22039031982422,-11.451751708984375
1687350885306258400,12.387258544921876,-15.729440689086914,-91.11406707763672,63.0921630859375
1687350885326368300,12.4073681640625,-4.029723167419434,-23.95433807373047,134.53836059570312
1687350885346478000,12.42747802734375,33.97922134399414,-3.8978257179260254,85.5819320678711
1687350885366588000,12.447587890625,50.90555191040039,6.048961639404297,3.898233413696289
1687350885386698000,12.467697998046875,27.202802658081055,4.912517070770264,-0.49364376068115234
1687350885406807800,12.487807861328125,2.0634632110595703,7.974000930786133,3.5505409240722656
1687350885426917600,12.507917724609374,-8.616750717163086,6.902077674865723,4.588671684265137
1687350885447027500,12.52802734375,-12.019209861755371,3.7617690563201904,3.4048614501953125
1687350885467137300,12.54813720703125,-9.219621658325195,2.0253615379333496,-1.899770736694336
1687350885487247000,12.5682470703125,-3.86285400390625,0.042734622955322266,-6.04377555847168
1687350885507357000,12.58835693359375,1.4275178909301758,-0.627530574798584,-7.387212753295898
1687350885527466800,12.608466796875,3.3959264755249023,-1.000450849533081,-5.435377597808838
1687350885547576600,12.62857666015625,2.3402247428894043,-1.125927448272705,-3.518484592437744
1687350885567686100,12.64868603515625,0.7201418876647949,-1.3733630180358887,-2.286681652069092
1687350885587796000,12.6687958984375,-0.6664493083953857,-1.363534688949585,-2.449730396270752
1687350885607905800,12.68890576171875,-0.856069803237915,-1.1160521507263184,-2.4478774070739746
1687350885628015600,12.709015625,-0.18578147888183594,-0.8592722415924072,-1.2255439758300781
1687350885648125400,12.72912548828125,0.9987242221832275,-0.4568161964416504,0.8339653015136719
1687350885668235300,12.7492353515625,2.106494426727295,-0.2133941650390625,2.2042579650878906
1687350885688345000,12.769344970703125,2.5116469860076904,0.08683562278747559,1.8697013854980469
1687350885708455000,12.789454833984376,2.040384292602539,0.2696847915649414,0.10984325408935547
1687350885728564500,12.809564453125,0.8115692138671875,0.09740734100341797,-1.272806167602539
1687350885748674300,12.82967431640625,-0.3528112769126892,0.49126458168029785,-1.5232267379760742
1687350885768784100,12.8497841796875,-1.208733081817627,0.4749484062194824,-1.217146873474121
1687350885788894000,12.86989404296875,-1.3254172801971436,0.5100197792053223,-1.234140396118164
1687350885809003800,12.890003662109375,-0.9754624366760254,0.5347392559051514,-0.7904386520385742
1687350885829113600,12.910113525390624,-0.7071744799613953,0.511791467666626,-0.7370128631591797
1687350885849223400,12.930223388671875,-0.5169824361801147,0.42148280143737793,-0.8957395553588867
1687350885869333000,12.9503330078125,-0.17461681365966797,0.47355222702026367,-0.6696939468383789
1687350885889442800,12.97044287109375,-0.060898661613464355,0.5654466152191162,-0.6773233413696289
1687350885909552600,12.990552734375,-0.1333087682723999,0.6876959800720215,-0.5330047607421875
1687350885929662500,13.010662353515626,-0.36986422538757324,0.6778857707977295,-0.3985300064086914
1687350885949772300,13.030772216796874,-0.15046000480651855,0.6534099578857422,-0.4100313186645508
1687350885969882000,13.050882080078125,0.3600451946258545,0.6503984928131104,-0.5551338195800781
1687350885989992000,13.070991943359376,0.8852637410163879,0.7095050811767578,-0.3423500061035156
1687350886010101800,13.091101806640625,1.0485327243804932,0.6107251644134521,-0.15685081481933594
1687350886030211300,13.11121142578125,0.9571943283081055,0.5949397087097168,-0.07025146484375
1687350886050321200,13.131321044921876,0.7595067024230957,0.5467984676361084,-0.08562850952148438
1687350886070431000,13.151430908203125,0.3570878505706787,0.4922618865966797,-0.34276771545410156
1687350886090540800,13.171540771484375,0.02841651439666748,0.5193793773651123,-0.4991483688354492
1687350886110650600,13.191650634765624,-0.03887629508972168,0.42507076263427734,-0.6638174057006836
1687350886130760400,13.211760498046875,0.0027591586112976074,0.4422440528869629,-0.8661212921142578
1687350886150870300,13.231870361328125,0.16917800903320312,0.35532474517822266,-0.7791118621826172
1687350886170980000,13.25197998046875,0.254347562789917,0.31609034538269043,-0.5595550537109375
1687350886191089700,13.272089599609375,0.19544541835784912,0.34034037590026855,-0.5395584106445312
1687350886211199500,13.292199462890625,0.14890563488006592,0.43585944175720215,-0.3669290542602539
1687350886231309300,13.312309326171874,0.10814559459686279,0.7256522178649902,0.20618247985839844
1687350886251419100,13.332419189453125,-0.17375648021697998,1.2912108898162842,1.4338111877441406
1687350886271529000,13.352529052734376,-0.5079957842826843,2.149487257003784,3.924684524536133
1687350886291638800,13.372638671875,-0.4921290874481201,3.0819687843322754,7.642904281616211
1687350886311748600,13.39274853515625,-0.05771303176879883,4.03880500793457,11.475773811340332
1687350886331858400,13.4128583984375,1.284130334854126,4.407231330871582,14.302421569824219
1687350886351968000,13.432968017578125,2.6544909477233887,3.930211067199707,14.80448055267334
1687350886372077800,13.453077880859375,4.209876537322998,2.9828176498413086,12.158821105957031
1687350886392187600,13.473187744140626,5.835158348083496,1.9882946014404297,9.193242073059082
1687350886412297500,13.49329736328125,5.369401931762695,-0.39171504974365234,7.385270595550537
1687350886432407300,13.5134072265625,3.4573938846588135,-3.796994209289551,5.456849575042725
1687350886452517000,13.53351708984375,1.742560863494873,-7.390439510345459,3.4059767723083496
1687350886472627000,13.553626953125,0.5788536071777344,-10.89026165008545,0.8464107513427734
1687350886492736800,13.57373681640625,0.25504592061042786,-13.64663314819336,-0.840111255645752
1687350886512846300,13.593846435546874,0.23959210515022278,-15.585382461547852,-1.7553279399871826
1687350886532956200,13.6139560546875,0.19005164504051208,-17.316158294677734,-1.5816786289215088
1687350886553066000,13.63406591796875,0.02204662561416626,-21.327024459838867,0.7278361320495605
1687350886573175800,13.65417578125,0.08512502908706665,-30.46404266357422,3.4024710655212402
1687350886593285600,13.67428564453125,4.597362041473389,-43.2662353515625,-3.3231515884399414
1687350886613395500,13.6943955078125,20.039228439331055,-44.78802490234375,-39.4754524230957
1687350886633505300,13.71450537109375,29.34285545349121,-49.27671432495117,-68.20256042480469
1687350886653615000,13.734614990234375,10.360054016113281,-76.94076538085938,-43.89781188964844
1687350886673724700,13.754724609375,-10.460189819335938,-103.95223236083984,3.168346881866455
1687350886693834500,13.77483447265625,-12.844858169555664,-90.47209167480469,70.18164825439453
1687350886713944300,13.7949443359375,32.724754333496094,-38.34624099731445,126.4843978881836
1687350886734054100,13.81505419921875,78.84235382080078,-7.770849704742432,74.64667510986328
1687350886754164000,13.8351640625,42.55056381225586,-0.026521533727645874,18.428295135498047
1687350886774273800,13.855273681640625,6.180604457855225,3.0586273670196533,21.17162322998047
1687350886794383600,13.875383544921876,-7.327198028564453,8.959632873535156,13.59606647491455
1687350886814493400,13.895493408203125,3.709596872329712,9.837054252624512,11.677122116088867
1687350886834603000,13.91560302734375,9.312140464782715,8.099177360534668,12.962987899780273
1687350886854712800,13.935712890625,5.640556335449219,3.0383188724517822,13.592574119567871
1687350886874822700,13.95582275390625,0.49411964416503906,-2.9392738342285156,12.073630332946777
1687350886894932500,13.975932373046875,-1.8815593719482422,-8.479215621948242,7.282224655151367
1687350886915042300,13.996042236328124,-2.79803204536438,-11.995612144470215,1.5087590217590332
1687350886935152000,14.016152099609375,-2.7508974075317383,-14.515175819396973,-2.027421712875366
1687350886955262000,14.036261962890626,-1.5820285081863403,-16.115877151489258,-3.311661720275879
1687350886975372000,14.0563720703125,0.10704770684242249,-17.04599952697754,-3.329158306121826
1687350886995481900,14.07648193359375,1.271936058998108,-18.168485641479492,-2.656036376953125
1687350887015591700,14.096591796875,1.36191725730896,-20.7465763092041,-1.9935358762741089
1687350887035701500,14.116701416015625,1.8397647142410278,-24.807897567749023,-1.1854476928710938
1687350887055811300,14.136811279296875,4.7568440437316895,-30.19587516784668,-3.864781141281128
1687350887075921200,14.156921142578126,10.742890357971191,-36.52493667602539,-19.233543395996094
1687350887096031000,14.177031005859375,20.385604858398438,-37.47303009033203,-46.11264419555664
1687350887116140800,14.197140869140625,22.90469741821289,-49.9168701171875,-50.36785888671875
1687350887136250600,14.217250732421874,10.92912483215332,-72.20603942871094,-28.04479217529297
1687350887156360400,14.2373603515625,-7.357132911682129,-88.06465148925781,13.772061347961426
1687350887176470300,14.25747021484375,-6.411099910736084,-62.493534088134766,115.68962097167969
1687350887196580000,14.277580078125,5.383693218231201,7.680609226226807,131.52296447753906
1687350887216690000,14.29768994140625,0.49178433418273926,-2.210934638977051,45.59188461303711
1687350887236800000,14.317800048828126,-0.7343547344207764,12.293628692626953,-10.937286376953125
1687350887256909800,14.337909912109374,9.2245512008667,10.486837387084961,-4.212923049926758
1687350887277019600,14.35801953125,7.5631561279296875,12.161023139953613,1.7517223358154297
1687350887297129500,14.37812939453125,-3.5057826042175293,7.494811058044434,6.280302047729492
1687350887317239300,14.3982392578125,-10.446874618530273,3.8468332290649414,4.552995681762695
1687350887337349000,14.41834912109375,-8.505499839782715,1.3812882900238037,-0.7287607192993164
1687350887357459000,14.438458984375,-2.327152967453003,0.09214019775390625,-2.65437650680542
1687350887377568800,14.45856884765625,2.357663869857788,-0.5061036348342896,-2.167313575744629
1687350887397678600,14.4786787109375,3.5789384841918945,-1.205206274986267,-1.9331169128417969
1687350887417788400,14.498788330078124,2.5451693534851074,-1.5078165531158447,-3.6824679374694824
1687350887437898200,14.518898193359375,0.9741338491439819,-1.7122105360031128,-4.496896266937256
1687350887458008000,14.539008056640625,0.07885473966598511,-1.4846075773239136,-3.620018482208252
1687350887478118000,14.559117919921874,-0.006133139133453369,-1.046252727508545,-2.057920455932617
1687350887498228000,14.57922802734375,1.2475448846817017,-0.7794692516326904,-0.5247325897216797
1687350887518337800,14.599337890625,2.589897871017456,-0.3276073932647705,0.34163665771484375
1687350887538447600,14.619447509765624,2.7472023963928223,-0.1618661880493164,0.18882274627685547
1687350887558557400,14.639557373046875,1.552802562713623,-0.14559149742126465,-0.6681432723999023
1687350887578667300,14.659667236328126,0.5268178582191467,-0.14052462577819824,-1.0805225372314453
1687350887598777000,14.679777099609375,-0.0658397376537323,-0.25283288955688477,-1.7548913955688477
1687350887618887000,14.699886962890625,0.06684264540672302,-0.11126875877380371,-1.618147850036621
1687350887638996700,14.719996826171876,0.5357604026794434,0.1405022144317627,-1.0732135772705078
1687350887659106600,14.7401064453125,0.06000334024429321,0.15163803100585938,-0.9566154479980469
1687350887679216400,14.76021630859375,-0.601823627948761,0.2448899745941162,-1.0858078002929688
1687350887699326200,14.780326171875,-0.7461423873901367,0.32328224182128906,-0.9767236709594727
1687350887719436000,14.80043603515625,-0.7394291162490845,0.4641532897949219,-1.1250362396240234
1687350887739545900,14.8205458984375,-0.45907220244407654,0.6675426959991455,-0.9878168106079102
1687350887759656000,14.840656005859374,-0.30963486433029175,0.7233736515045166,-0.15432262420654297
1687350887779765800,14.860765869140625,-0.07991641759872437,0.8659591674804688,0.31699466705322266
1687350887799875600,14.88087548828125,0.21854041516780853,0.8427121639251709,-0.3235034942626953
1687350887819985400,14.9009853515625,0.34583228826522827,0.8659303188323975,-0.6617336273193359
1687350887840095200,14.92109521484375,0.1694779396057129,0.7741367816925049,-0.7517681121826172
1687350887860205000,14.941205078125,0.10364899039268494,0.6813187599182129,-0.6318416595458984
1687350887880315000,14.96131494140625,0.6013844609260559,0.6316571235656738,0.05876922607421875
1687350887900424700,14.9814248046875,0.8496112823486328,0.4727935791015625,-0.029201507568359375
1687350887920534500,15.001534423828126,0.2623293399810791,0.4127027988433838,-0.9605245590209961
1687350887940644400,15.021644287109375,-0.419475793838501,0.4352538585662842,-1.2040939331054688
1687350887960754200,15.041754150390625,-0.8045397996902466,0.5685763359069824,-0.781219482421875
1687350887980864000,15.061864013671874,-0.4330986738204956,0.6342427730560303,-0.2021961212158203
1687350888000973800,15.081973876953125,0.05022925138473511,0.7947020530700684,0.022119522094726562
1687350888021084000,15.102083984375,0.250969260931015,0.9418439865112305,0.14342975616455078
1687350888041193700,15.12219384765625,0.018474608659744263,1.044450283050537,0.0765676498413086
1687350888061303600,15.142303466796875,0.2582128643989563,1.437117338180542,0.8761749267578125
1687350888081413400,15.162413330078126,0.5505203604698181,1.8713817596435547,2.2785043716430664
1687350888101523200,15.182523193359375,0.1861775815486908,2.267483949661255,3.275094985961914
1687350888121633000,15.202633056640625,-0.25667956471443176,2.7001211643218994,4.153114318847656
1687350888141742800,15.222742919921876,-0.02252054214477539,3.029510974884033,6.068778991699219
1687350888161852700,15.242852783203125,0.7884746789932251,3.056881904602051,8.608723640441895
1687350888181962500,15.26296240234375,1.3628642559051514,2.865187168121338,10.482381820678711
1687350888202072300,15.283072265625,1.7665443420410156,2.3371565341949463,11.19949722290039
1687350888222182100,15.30318212890625,2.7669200897216797,1.703296184539795,11.301651000976562
1687350888242292000,15.3232919921875,3.6602797508239746,0.5097689628601074,10.605951309204102
1687350888262402000,15.343402099609374,3.4902772903442383,-0.9984993934631348,8.886327743530273
1687350888282512000,15.363511962890625,2.0954983234405518,-3.1343061923980713,6.986368179321289
1687350888302621700,15.38362158203125,0.7511732578277588,-5.437093734741211,5.046182632446289
1687350888322731500,15.4037314453125,-0.1601874828338623,-8.098475456237793,2.95753812789917
1687350888342841300,15.42384130859375,-0.18175417184829712,-10.987563133239746,0.7760171890258789
1687350888362951200,15.443951171875,0.18840265274047852,-13.98338508605957,-0.706946611404419
1687350888383061000,15.46406103515625,-0.1279316246509552,-18.690975189208984,-1.5155901908874512
1687350888403170800,15.4841708984375,-0.6770821809768677,-27.20414924621582,-1.1810723543167114
1687350888423280600,15.50428076171875,2.1898722648620605,-41.06909942626953,-4.97673225402832
1687350888443390500,15.524390380859375,8.404544830322266,-46.81327819824219,-23.983837127685547
1687350888463500300,15.544500244140625,18.932579040527344,-40.800270080566406,-63.62356185913086
1687350888483610000,15.564610107421874,15.667315483093262,-51.48198699951172,-64.85100555419922
1687350888503720000,15.584719970703125,-3.320326805114746,-74.70494842529297,-27.39626121520996
1687350888523830000,15.604830078125,-14.125444412231445,-84.26560974121094,21.724651336669922
1687350888543939800,15.62493994140625,2.7833077907562256,-51.865028381347656,86.15675354003906
1687350888564049700,15.645049560546875,43.52779769897461,-12.85321044921875,101.6332015991211
1687350888584159500,15.665159423828126,52.277828216552734,-5.718810081481934,48.20610046386719
1687350888604269300,15.685269287109374,27.571998596191406,6.3717570304870605,17.004108428955078
1687350888624379100,15.705379150390625,12.97478199005127,9.890183448791504,14.103397369384766
1687350888644489000,15.725489013671876,16.47369956970215,11.810132026672363,13.837362289428711
1687350888664601300,15.745601318359375,13.961742401123047,10.046674728393555,18.77105712890625
1687350888684709000,15.765709228515625,6.650291919708252,5.651557922363281,22.393882751464844
1687350888704816600,15.785816650390625,-0.7872136831283569,-1.515183448791504,20.52669334411621
1687350888724924700,15.805924560546876,-4.7253642082214355,-8.135357856750488,12.622673988342285
1687350888745032700,15.82603271484375,-5.633343696594238,-12.133100509643555,5.921119213104248
1687350888765141000,15.84614111328125,-4.274877548217773,-14.834419250488281,2.7213902473449707
1687350888785249800,15.866249755859375,-2.151674747467041,-17.736066818237305,1.2815546989440918
1687350888805358600,15.886358642578125,-0.17134511470794678,-20.34443473815918,0.2274155616760254
1687350888825468200,15.90646826171875,1.3177729845046997,-21.988204956054688,-0.4040488004684448
1687350888845577700,15.92657763671875,1.127272605895996,-25.062795639038086,0.01395559310913086
1687350888865687800,15.946687744140625,0.17894244194030762,-33.39877700805664,1.859744906425476
1687350888885798400,15.96679833984375,4.390885353088379,-45.095115661621094,0.0991971492767334
1687350888905909200,15.9869091796875,17.84027862548828,-48.14429473876953,-26.68575668334961
1687350888926020000,16.00702001953125,29.834699630737305,-42.72541046142578,-62.470951080322266
1687350888946131500,16.02713134765625,17.830322265625,-60.09911346435547,-51.33580017089844
1687350888966242800,16.047242919921874,-10.13049602508545,-81.4290771484375,-17.575716018676758
1687350888986354400,16.0673544921875,-10.475113868713379,-93.08197784423828,34.910133361816406
1687350889006465800,16.0874658203125,18.334089279174805,-48.22981643676758,111.00291442871094
1687350889026576100,16.107576171875,62.66429901123047,-3.4464616775512695,100.90666961669922
1687350889046686000,16.12768603515625,39.03111267089844,-1.7000536918640137,28.125003814697266
1687350889066795800,16.147795654296875,17.986675262451172,7.774212837219238,-8.834770202636719
1687350889086905600,16.167905517578124,3.7594528198242188,11.807703971862793,-5.182769775390625
1687350889107015400,16.188015380859376,-4.5724639892578125,9.864771842956543,6.478918075561523
1687350889127125000,16.208125,-8.469701766967773,8.521356582641602,13.922332763671875
1687350889147234800,16.22823486328125,-7.801374435424805,4.712925434112549,10.601737976074219
1687350889167344600,16.2483447265625,-3.8284285068511963,2.217815637588501,0.8681087493896484
1687350889187454500,16.268454345703127,-0.7584520578384399,0.3458127975463867,-4.989729881286621
1687350889207564300,16.288564208984376,1.387459635734558,-0.4035935401916504,-6.3257341384887695
1687350889227674000,16.308674072265624,1.798007845878601,-1.2744121551513672,-5.9775848388671875
1687350889247784000,16.328783935546873,1.3735586404800415,-1.5876141786575317,-5.825818061828613
1687350889267893800,16.348893798828126,0.18831053376197815,-1.826288104057312,-4.740751266479492
1687350889288003300,16.36900341796875,-0.4235249161720276,-1.883928894996643,-3.982144355773926
1687350889308113200,16.389113037109375,-0.6169200539588928,-1.7137606143951416,-3.5829696655273438
1687350889328223000,16.409222900390624,0.14912107586860657,-1.3945704698562622,-2.2249112129211426
1687350889348332800,16.429332763671876,0.6055009961128235,-1.3535189628601074,-1.3391246795654297
1687350889368442600,16.449442626953125,1.1808476448059082,-0.6398360729217529,-0.2902364730834961
1687350889388552400,16.469552490234374,1.7171491384506226,-0.3270728588104248,1.2456636428833008
1687350889408662300,16.489662353515627,1.459930658340454,0.10213041305541992,0.791844367980957
1687350889428772000,16.509772216796875,0.5611986517906189,0.5509653091430664,0.14972877502441406
1687350889448881700,16.529881591796876,0.05166095495223999,0.6849679946899414,0.004444122314453125
1687350889468991500,16.549991455078125,-0.23256626725196838,0.998490571975708,-0.32958507537841797
1687350889489101300,16.570101318359374,-0.1378408670425415,1.1176888942718506,-0.02159881591796875
1687350889509211100,16.590211181640626,0.05154135823249817,1.0823209285736084,-0.29210758209228516
1687350889529321000,16.610321044921875,-0.21861368417739868,1.2045271396636963,-0.6049976348876953
1687350889549430800,16.6304306640625,-0.24352529644966125,1.2182228565216064,-0.172027587890625
1687350889569540600,16.65054052734375,-0.2915976941585541,1.0825207233428955,-0.5396928787231445
1687350889589650400,16.670650390625,-0.4624703526496887,1.1827290058135986,-0.6691598892211914
1687350889609760000,16.690760009765626,-0.3967534899711609,1.0407044887542725,-0.35899829864501953
1687350889629869800,16.710869873046875,-0.007399708032608032,0.819105863571167,-0.26393699645996094
1687350889649979600,16.730979736328123,0.7752168774604797,0.7801246643066406,-0.20155620574951172
1687350889670089500,16.75108935546875,1.070455551147461,0.630363941192627,-0.2952299118041992
1687350889690199300,16.77119921875,0.785813570022583,0.5060677528381348,-0.2535696029663086
1687350889710309000,16.79130908203125,0.6170699000358582,0.3683621883392334,-0.2722587585449219
1687350889730419000,16.8114189453125,0.6952374577522278,0.20947718620300293,-0.3284482955932617
1687350889750528500,16.831528564453127,0.7040454745292664,0.28962039947509766,-0.33248329162597656
1687350889770638300,16.851638427734375,0.6240844130516052,0.25293684005737305,-0.35900211334228516
1687350889790748200,16.871748046875,0.3278425931930542,0.25872278213500977,-0.5795793533325195
1687350889810858000,16.89185791015625,0.0927734375,0.4855170249938965,-0.7853479385375977
1687350889830967800,16.9119677734375,-0.28381723165512085,0.6546523571014404,-0.5344095230102539
1687350889851077600,16.93207763671875,-0.33479708433151245,0.9303543567657471,-0.08919334411621094
1687350889871187500,16.9521875,-0.6652584075927734,1.3321242332458496,0.21169662475585938
1687350889891297300,16.97229736328125,-0.9298820495605469,1.7702460289001465,0.8946447372436523
1687350889911406800,16.99240673828125,-1.0911041498184204,2.1970880031585693,1.636549949645996
1687350889931516700,17.0125166015625,-0.8097701668739319,2.508596658706665,2.4452056884765625
1687350889951626500,17.03262646484375,-0.08487951755523682,2.5839691162109375,2.930415153503418
1687350889971736300,17.052736328125,0.26435840129852295,2.3559725284576416,2.5645713806152344
1687350889991846100,17.07284619140625,0.17664611339569092,2.20603609085083,2.7073631286621094
1687350890011956000,17.0929560546875,0.2318873405456543,2.195772647857666,4.3877410888671875
1687350890032065800,17.113065673828125,0.8504524230957031,2.1718404293060303,6.599761009216309
1687350890052175600,17.133175537109373,1.8366903066635132,1.929738998413086,7.886146545410156
1687350890072285200,17.15328515625,2.449359893798828,1.6122469902038574,8.527935981750488
1687350890092395000,17.17339501953125,2.3623428344726562,1.0765800476074219,8.956304550170898
1687350890112504800,17.1935048828125,2.797239303588867,0.04552173614501953,9.380464553833008
1687350890132614700,17.21361474609375,3.239211082458496,-1.0576872825622559,8.935654640197754
1687350890152724500,17.233724365234377,2.602940082550049,-2.808551788330078,7.537132740020752
1687350890172834300,17.253834228515625,1.947379469871521,-4.534150123596191,5.299794673919678
1687350890192944000,17.273944091796874,1.4990288019180298,-6.644773483276367,2.508822441101074
1687350890213056000,17.294055908203124,1.3642027378082275,-8.370574951171875,0.38214921951293945
1687350890233164500,17.31416455078125,1.4192683696746826,-10.219918251037598,-1.8638452291488647
1687350890253273000,17.334273193359376,1.1734603643417358,-11.774063110351562,-3.868119478225708
1687350890273381600,17.354381591796876,0.39696988463401794,-14.415549278259277,-3.9676570892333984
1687350890293490400,17.374490478515625,-0.8244019150733948,-20.478389739990234,-1.7049577236175537
1687350890313599200,17.39459912109375,-0.7150006294250488,-32.3626823425293,-1.9171388149261475
1687350890333708300,17.414708251953126,5.89427375793457,-44.37785339355469,-15.295265197753906
1687350890353817600,17.434817626953127,16.153369903564453,-40.99040603637695,-52.44966506958008
1687350890373927000,17.454927001953124,16.01637840270996,-47.09563064575195,-65.83151245117188
1687350890394036700,17.47503662109375,-1.7746764421463013,-71.11421966552734,-34.43053436279297
1687350890414146600,17.495146484375,-14.62289810180664,-85.66316986083984,16.914461135864258
1687350890434256600,17.515256591796874,-1.0275328159332275,-60.856563568115234,89.1716079711914
1687350890454367000,17.535366943359374,48.989253997802734,-20.673582077026367,107.3724136352539
1687350890474477600,17.5554775390625,73.8214111328125,-6.648312568664551,41.38230895996094
1687350890494588200,17.575588134765624,38.01626205444336,4.062436580657959,7.22414493560791
1687350890514698800,17.59569873046875,15.899822235107422,10.536235809326172,9.121140480041504
1687350890534809600,17.6158095703125,11.675317764282227,12.085326194763184,20.000045776367188
1687350890554920200,17.635920166015627,6.175732612609863,9.225445747375488,24.84691619873047
1687350890575031000,17.656031005859376,-1.0856435298919678,1.6426384449005127,18.509193420410156
1687350890595140600,17.676140625,-4.391425609588623,-4.596805095672607,10.23680305480957
1687350890615250400,17.69625048828125,-3.637779712677002,-8.424026489257812,6.177569389343262
1687350890635360300,17.7163603515625,-0.7619532942771912,-11.617742538452148,4.105924129486084
1687350890655470000,17.736469970703126,1.0204887390136719,-14.444132804870605,1.5004138946533203
1687350890675580000,17.756579833984375,0.725214958190918,-16.638893127441406,-1.0756783485412598
1687350890695689500,17.776689453125,0.5480595231056213,-17.793373107910156,-2.620678186416626
1687350890715799300,17.79679931640625,0.427861750125885,-18.694433212280273,-2.8360841274261475
1687350890735909000,17.8169091796875,0.036318495869636536,-20.78764533996582,-2.8938963413238525
1687350890756018700,17.837018798828126,-0.7836081981658936,-24.571245193481445,-2.727574110031128
1687350890776128500,17.85712841796875,0.548987865447998,-30.029796600341797,-1.3909449577331543
1687350890796238300,17.87723828125,4.633924961090088,-37.85353469848633,-8.63006591796875
1687350890816348000,17.897347900390624,15.616748809814453,-39.23695755004883,-37.076576232910156
1687350890836457700,17.917457763671877,29.18124771118164,-39.9720573425293,-60.26746368408203
1687350890856567600,17.937567626953125,16.974632263183594,-60.38750457763672,-37.33442306518555
1687350890876677000,17.957677001953126,-2.6877434253692627,-70.38249969482422,-2.601706027984619
1687350890896787000,17.977786865234375,-20.280241012573242,-68.86412811279297,41.10047912597656
1687350890916896800,17.997896728515624,-8.09078598022461,-42.152122497558594,96.16928100585938
1687350890937006300,18.01800634765625,24.734603881835938,-2.639641284942627,110.73580932617188
1687350890957116200,18.0381162109375,27.084667205810547,-6.086733341217041,43.16440200805664
1687350890977226000,18.05822607421875,25.81847381591797,6.289953708648682,-11.356342315673828
1687350890997335600,18.07833544921875,18.714988708496094,14.519859313964844,-9.389779090881348
1687350891017445400,18.0984453125,4.8244709968566895,6.7090301513671875,13.993634223937988
1687350891037555200,18.11855517578125,-3.1600887775421143,4.5894365310668945,15.013004302978516
1687350891057664800,18.138664794921876,-7.43514347076416,0.5498099327087402,6.257607460021973
1687350891077774600,18.158774658203125,-5.8901286125183105,-0.8194822072982788,-3.1467533111572266
1687350891097884400,18.178884521484374,-3.3060874938964844,-1.0549269914627075,-8.171867370605469
1687350891117994000,18.198993896484374,-2.046658515930176,-1.4154258966445923,-10.184829711914062
1687350891138103800,18.219103759765623,-1.0175445079803467,-1.5373194217681885,-8.380659103393555
1687350891158213600,18.239213623046876,0.8151953816413879,-1.6244139671325684,-4.632884502410889
1687350891178323200,18.2593232421875,2.4584546089172363,-1.4513301849365234,-3.1850242614746094
1687350891198433000,18.27943310546875,2.4448628425598145,-1.283409833908081,-3.3565306663513184
1687350891218542800,18.29954296875,1.0575902462005615,-0.8561784029006958,-2.522261142730713
1687350891238652400,18.31965234375,-0.9823622703552246,0.09354710578918457,0.17181110382080078
1687350891258762200,18.33976220703125,-3.068537473678589,0.6128225326538086,2.581521987915039
1687350891278872000,18.3598720703125,-2.6060562133789062,0.7906539440155029,2.9184579849243164
1687350891298981600,18.379981689453125,-0.23456555604934692,1.0526049137115479,1.2236595153808594
1687350891319091500,18.400091552734374,1.4824204444885254,1.169259786605835,-0.02800464630126953
1687350891339201300,18.420201171875,2.0479557514190674,1.1612012386322021,-0.7353229522705078
1687350891359311000,18.44031103515625,1.4092323780059814,1.0581014156341553,-1.152480125427246
1687350891379420700,18.460420654296875,0.5008634328842163,0.7931396961212158,-1.3067493438720703
1687350891399530500,18.480530517578124,-0.19162732362747192,0.6722202301025391,-1.0073175430297852
1687350891419640300,18.500640380859377,-0.6257296800613403,0.6204338073730469,-0.5031709671020508
1687350891439750100,18.520750244140626,-0.871317446231842,0.5354669094085693,-0.49892330169677734
1687350891459860000,18.54085986328125,-0.6951276063919067,0.48268771171569824,-0.7712793350219727
1687350891479969800,18.5609697265625,-0.19786012172698975,0.411698579788208,-1.099649429321289
1687350891500079600,18.58107958984375,0.4137491285800934,0.42524051666259766,-1.1745281219482422
1687350891520189400,18.601189453125,0.7339912056922913,0.5464186668395996,-0.989192008972168
1687350891540299000,18.621299072265625,0.7715005874633789,0.5944650173187256,-0.4696664810180664
1687350891560408800,18.641408935546874,0.8329224586486816,0.49480319023132324,-0.1464986801147461
1687350891580518700,18.6615185546875,0.7442290186882019,0.4764974117279053,-0.5047311782836914
1687350891600628500,18.68162841796875,0.5241929292678833,0.5288107395172119,-0.6764249801635742
1687350891620738300,18.70173828125,0.5769284963607788,0.765833854675293,-0.24954605102539062
1687350891640848100,18.72184814453125,0.049801453948020935,0.35657310485839844,0.11511611938476562
1687350891660958000,18.7419580078125,0.008405089378356934,0.5153307914733887,0.24097824096679688
1687350891681067800,18.76206787109375,-0.1076250672340393,0.6123800277709961,0.15884113311767578
1687350891701177300,18.78217724609375,-0.3154202997684479,0.6176280975341797,-0.13878726959228516
1687350891721287200,18.802287109375,-0.28848788142204285,0.8205938339233398,-0.057692527770996094
1687350891741397000,18.82239697265625,-0.19109328091144562,1.0063104629516602,0.0905752182006836
1687350891761506800,18.8425068359375,-0.2326158881187439,1.3664636611938477,0.5359535217285156
1687350891781616600,18.86261669921875,-0.4148598909378052,1.6664884090423584,1.3138933181762695
1687350891801726500,18.8827265625,-0.5906097292900085,2.112903356552124,1.6969356536865234
1687350891821836300,18.902836181640627,-0.4126514792442322,2.783754348754883,2.4219188690185547
1687350891841945900,18.92294580078125,-0.44609513878822327,3.458310127258301,3.4739608764648438
1687350891862055700,18.9430556640625,0.09357327222824097,3.758836269378662,5.945500373840332
1687350891882165500,18.96316552734375,0.9910621643066406,3.761289596557617,8.840536117553711
1687350891902275300,18.983275390625,1.9382153749465942,3.402649402618408,10.613778114318848
1687350891922385200,19.00338525390625,2.4237794876098633,2.45084810256958,10.073349952697754
1687350891942495000,19.023494873046875,2.714956283569336,1.165792465209961,8.812758445739746
1687350891962604800,19.043604736328124,2.528130054473877,-0.39721012115478516,7.5942583084106445
1687350891982714600,19.063714599609376,1.943798542022705,-2.248436450958252,6.4905686378479
1687350892002824200,19.08382421875,1.3735796213150024,-4.007557392120361,4.639904975891113
1687350892022934000,19.10393408203125,1.0995776653289795,-5.608971118927002,3.3208718299865723
1687350892043043800,19.1240439453125,0.7976261377334595,-7.110531330108643,2.4225544929504395
1687350892063153700,19.144153564453124,0.3327134847640991,-8.864883422851562,1.0413031578063965
1687350892083263500,19.164263427734376,-0.02663719654083252,-10.207138061523438,-0.4497034549713135
1687350892103373300,19.184373291015625,-0.2531474828720093,-11.302870750427246,-2.2636899948120117
1687350892123483100,19.204483154296874,-0.023755013942718506,-11.84499454498291,-3.8887526988983154
1687350892143593000,19.224593017578126,0.48091381788253784,-11.873833656311035,-4.241889476776123
1687350892163702500,19.24470263671875,0.7523607015609741,-12.592628479003906,-2.232578754425049
1687350892183812400,19.264812255859376,0.40164270997047424,-15.1455717086792,0.10831928253173828
1687350892203922200,19.284922119140624,0.1706973910331726,-19.940021514892578,0.45964503288269043
1687350892224032000,19.305031982421873,1.5131025314331055,-26.62456512451172,-2.2745354175567627
1687350892244141600,19.3251416015625,3.911105155944824,-34.37584686279297,-18.61143684387207
1687350892264251400,19.34525146484375,9.2682523727417,-35.921119689941406,-46.9605712890625
1687350892284361200,19.365361328125,5.9084391593933105,-51.270851135253906,-45.70048522949219
1687350892304470800,19.385470703125,-3.4855241775512695,-70.40280151367188,-25.908748626708984
1687350892324580600,19.40558056640625,-7.95596981048584,-88.99168395996094,18.812070846557617
1687350892344690400,19.4256904296875,1.1331939697265625,-66.98503112792969,100.9277114868164
1687350892364800000,19.445800048828126,42.292945861816406,-19.156442642211914,122.38872528076172
1687350892384909800,19.465909912109375,65.81873321533203,-2.455998182296753,30.381973266601562
1687350892405019600,19.48601953125,35.98789978027344,0.28801780939102173,4.745135307312012
1687350892425129200,19.506129150390624,4.618348598480225,5.1871843338012695,13.67453384399414
1687350892445239000,19.526239013671876,-1.0592232942581177,8.865997314453125,14.11503791809082
1687350892465348900,19.546348876953125,6.108477592468262,9.019335746765137,15.729900360107422
1687350892485458400,19.56645849609375,5.980581760406494,6.394003868103027,14.332143783569336
1687350892505568300,19.586568359375,1.8487496376037598,2.1297075748443604,13.854363441467285
1687350892525678000,19.606677978515624,-1.9505789279937744,-3.0435681343078613,11.167040824890137
1687350892545787600,19.62678759765625,-3.1113195419311523,-7.532866954803467,5.935918807983398
1687350892565897500,19.6468974609375,-2.5802578926086426,-10.487527847290039,0.9480843544006348
1687350892586007300,19.66700732421875,-1.0435848236083984,-11.926094055175781,-1.249488353729248
1687350892606116900,19.687116943359374,-0.04532766342163086,-13.595193862915039,-2.2243223190307617
1687350892626226700,19.707226806640627,0.44318968057632446,-14.870603561401367,-2.6358461380004883
1687350892646336500,19.72733642578125,0.6473572254180908,-16.607582092285156,-2.272298812866211
1687350892666446000,19.747446044921876,0.5723701119422913,-19.968645095825195,-1.6496268510818481
1687350892686556000,19.767555908203125,0.22950232028961182,-24.541728973388672,0.3198860287666321
1687350892706665700,19.787665771484374,1.8559110164642334,-32.414939880371094,1.8943045139312744
1687350892726775300,19.807775390625,9.126898765563965,-42.138763427734375,-13.237391471862793
1687350892746885000,19.827885009765627,20.48018455505371,-39.01429748535156,-50.030696868896484
1687350892766995000,19.847994873046876,17.345279693603516,-48.639156341552734,-58.099849700927734
1687350892787104500,19.8681044921875,1.7108519077301025,-68.46033477783203,-30.89954948425293
1687350892807214300,19.88821435546875,-12.270834922790527,-82.37389373779297,16.866790771484375
1687350892827324200,19.90832421875,-2.2816405296325684,-53.5421257019043,111.54829406738281
1687350892847433700,19.928433837890626,23.388614654541016,3.1188883781433105,122.92526245117188
1687350892867543600,19.94854345703125,43.183006286621094,9.452098846435547,37.854862213134766
1687350892887653400,19.9686533203125,19.88411521911621,4.3026628494262695,-2.2626466751098633
1687350892907763000,19.988762939453125,-3.5694284439086914,6.5036492347717285,2.305251121520996
1687350892927872800,20.008872802734373,-5.217848300933838,8.09415054321289,-1.488112449645996
1687350892947982600,20.028982666015626,1.2811322212219238,7.732089996337891,-3.118382453918457
1687350892968092200,20.049092041015626,0.24319779872894287,5.35801362991333,0.1323719024658203
1687350892988202000,20.069201904296875,-3.733549118041992,2.6007018089294434,1.4440021514892578
1687350893008311800,20.089311767578124,-4.276643753051758,0.9315061569213867,-0.2586545944213867
1687350893028421600,20.109421630859377,-2.4416558742523193,-0.043738365173339844,-2.555945873260498
1687350893048531200,20.12953125,-0.9983431100845337,-0.5831847190856934,-3.5110487937927246
1687350893068641000,20.14964111328125,-0.7937312722206116,-1.334043025970459,-3.3103890419006348
1687350893088750800,20.169750732421875,-0.22113654017448425,-1.529026985168457,-3.264336109161377
1687350893108860400,20.1898603515625,0.7048133015632629,-1.4225547313690186,-3.769542694091797
1687350893128970200,20.20997021484375,1.4511098861694336,-0.968557596206665,-4.1647257804870605
1687350893149080000,20.230080078125,1.2224059104919434,-0.46354222297668457,-3.0980734825134277
1687350893169189600,20.250189697265625,0.861916184425354,0.21061992645263672,-1.2444944381713867
1687350893189299500,20.270299560546874,0.5016902685165405,0.5615603923797607,0.8534135818481445
1687350893209409300,20.2904091796875,0.25546491146087646,0.996950626373291,1.5127592086791992
1687350893229518800,20.310518798828124,0.7687769532203674,1.0594165325164795,1.294785499572754
1687350893249628700,20.330628662109376,0.9172030091285706,1.1909384727478027,0.4397706985473633
1687350893269738500,20.350738525390625,0.5780083537101746,1.2572674751281738,0.1082162857055664
1687350893289848000,20.37084814453125,0.24133223295211792,1.151052713394165,0.24445056915283203
1687350893309958000,20.3909580078125,0.29186493158340454,1.086805820465088,-0.00038909912109375
1687350893330067700,20.411067626953123,0.710152804851532,0.7881984710693359,-0.37465763092041016
1687350893350177300,20.43117724609375,0.75962895154953,0.7949602603912354,-0.6147432327270508
1687350893370287000,20.451287109375,0.3406612277030945,0.5677354335784912,-0.5628166198730469
1687350893390397000,20.47139697265625,-0.27563536167144775,0.4974861145019531,-0.7109336853027344
1687350893410506500,20.491506591796874,-0.36338430643081665,0.4065074920654297,-0.7491531372070312
1687350893430616300,20.5116162109375,-0.26708877086639404,0.25997138023376465,-0.748682975769043
1687350893450726100,20.53172607421875,-0.11760395765304565,0.2753894329071045,-0.8690595626831055
1687350893470835700,20.551835693359376,0.19443273544311523,0.2775435447692871,-0.9087686538696289
1687350893490945500,20.571945556640625,0.1741396188735962,0.19378209114074707,-0.8921995162963867
1687350893511055400,20.592055419921873,0.3027224540710449,0.3453068733215332,-0.9437618255615234
1687350893531165000,20.6121650390625,0.3536900281906128,0.2877931594848633,-0.7960710525512695
1687350893551274800,20.632274658203126,0.2330338954925537,0.37972068786621094,-0.6407680511474609
1687350893571384600,20.652384521484375,0.41064655780792236,0.40351343154907227,-0.38028717041015625
1687350893591494100,20.672494140625,0.5225837230682373,0.40714359283447266,-0.34676456451416016
1687350893611604000,20.69260400390625,0.5382571220397949,0.4485306739807129,-0.396484375
1687350893631713800,20.7127138671875,0.3992868661880493,0.40439939498901367,-0.43059825897216797
1687350893651823400,20.7328232421875,0.15081942081451416,0.41374659538269043,-0.4370002746582031
1687350893671936000,20.75293603515625,0.06543898582458496,0.39334559440612793,-0.4006214141845703
1687350893692043000,20.77304296875,0.09905636310577393,0.4920692443847656,-0.5256290435791016
1687350893712150000,20.79314990234375,-0.048270463943481445,0.5303902626037598,-0.6124734878540039
1687350893732257300,20.81325732421875,-0.1910417079925537,0.505075216293335,-0.484039306640625
1687350893752364800,20.83336474609375,-0.21640825271606445,0.6379787921905518,-0.3630399703979492
1687350893772472800,20.853472900390624,-0.21649634838104248,0.8228840827941895,0.04308795928955078
1687350893792581000,20.8735810546875,-0.41709625720977783,1.3751018047332764,0.3966073989868164
1687350893812690000,20.89368994140625,-0.697026252746582,2.2929670810699463,2.199366569519043
1687350893832799200,20.91379931640625,-0.42201560735702515,3.5638747215270996,5.57363224029541
1687350893852909000,20.933908935546874,-0.053911685943603516,4.716716766357422,9.251437187194824
1687350893873019100,20.95401904296875,1.6770433187484741,5.247217178344727,12.181929588317871
1687350893893129700,20.974129638671876,4.361820697784424,4.961513519287109,12.90562629699707
1687350893913240800,20.99424072265625,6.254464149475098,3.9930734634399414,12.33456039428711
1687350893933352200,21.014352294921874,6.183947563171387,2.6497321128845215,12.938438415527344
1687350893953463600,21.034463623046875,4.488421440124512,1.1861190795898438,12.514117240905762
1687350893973575200,21.0545751953125,2.5456879138946533,-0.6060194969177246,12.299457550048828
1687350893993687000,21.07468701171875,1.1906191110610962,-3.632324695587158,10.745771408081055
1687350894013798700,21.094798583984375,0.17978227138519287,-6.932494640350342,7.250699043273926
1687350894033908200,21.114908203125,-0.5408378839492798,-10.18031120300293,4.3345489501953125
1687350894054018000,21.13501806640625,-0.8735747337341309,-13.017219543457031,1.7180464267730713
1687350894074127600,21.155127685546876,-0.7174975275993347,-14.613433837890625,-0.5059142112731934
1687350894094237400,21.175237548828125,-0.3748394846916199,-16.0924015045166,-1.3452339172363281
1687350894114347000,21.195346923828126,-0.5368244647979736,-17.85774040222168,-1.1312041282653809
1687350894134456800,21.215456787109375,-1.0918488502502441,-21.605131149291992,-0.1569228172302246
1687350894154569000,21.23556884765625,-0.3805920481681824,-26.746381759643555,-0.4907515048980713
1687350894174676200,21.25567626953125,3.276750326156616,-31.944786071777344,-7.221851348876953
1687350894194783700,21.27578369140625,10.594497680664062,-34.7432861328125,-19.984294891357422
1687350894214891300,21.295891357421876,14.365728378295898,-37.56210708618164,-32.26201629638672
1687350894234999000,21.3159990234375,7.597604751586914,-45.64181900024414,-28.885072708129883
1687350894255107000,21.336107177734377,-3.2063069343566895,-56.24829864501953,-21.010969161987305
1687350894275215600,21.356215576171873,-12.075695991516113,-69.29103088378906,-6.380405426025391
1687350894295324700,21.37632470703125,-13.871511459350586,-66.1955795288086,43.39055633544922
1687350894315434000,21.39643408203125,10.008474349975586,-37.77205276489258,94.82418823242188
1687350894335543600,21.41654345703125,81.7225341796875,-18.48609733581543,88.4112777709961
1687350894355653600,21.436653564453124,69.02832794189453,0.16741907596588135,37.57709503173828
1687350894375764200,21.45676416015625,16.612979888916016,1.3362945318222046,20.770366668701172
1687350894395875000,21.476875,0.11201596260070801,7.778686046600342,12.195472717285156
1687350894415986000,21.49698583984375,4.965081214904785,7.11204719543457,16.902667999267578
1687350894436097300,21.51709716796875,7.439779281616211,3.6898250579833984,16.799026489257812
1687350894456208600,21.537208740234377,3.5792148113250732,-2.6189095973968506,13.310729026794434
1687350894476320000,21.557320068359374,-1.3022887706756592,-9.045307159423828,7.648693084716797
1687350894496431400,21.577431396484375,-2.861340045928955,-14.418155670166016,1.7452831268310547
1687350894516541400,21.59754150390625,-2.4590041637420654,-17.252717971801758,-2.7813403606414795
1687350894536651300,21.6176513671875,-0.7972395420074463,-18.193405151367188,-4.516546726226807
1687350894556760800,21.6377607421875,0.603496789932251,-18.20164680480957,-4.6021623611450195
1687350894576870400,21.657870361328126,1.1791727542877197,-19.452014923095703,-3.0817224979400635
1687350894596980200,21.677980224609374,1.1721675395965576,-22.06513214111328,-1.7361811399459839
1687350894617089800,21.69808984375,1.050148367881775,-26.026012420654297,-0.24495697021484375
1687350894637199600,21.71819970703125,2.9182324409484863,-32.385955810546875,-1.4430041313171387
1687350894657309200,21.73830908203125,8.616205215454102,-40.37983703613281,-17.669361114501953
1687350894677419000,21.7584189453125,24.90333366394043,-41.89169692993164,-51.3143310546875
1687350894697528600,21.778528564453126,29.99887466430664,-60.43351745605469,-65.01971435546875
1687350894717638400,21.798638427734375,12.420400619506836,-98.03290557861328,-27.285659790039062
1687350894737751000,21.8187509765625,-0.6552715301513672,-90.4031982421875,99.64104461669922
1687350894757858000,21.838858154296876,-1.1620349884033203,-1.5402882099151611,147.18698120117188
1687350894777965000,21.858965087890624,-6.04399299621582,16.42635154724121,39.211055755615234
1687350894798072300,21.879072265625,4.723537921905518,8.419123649597168,8.534424781799316
1687350894818179800,21.899179931640624,12.268312454223633,8.700994491577148,10.9681396484375
1687350894838288000,21.919287841796876,11.082313537597656,6.3687286376953125,-9.185603141784668
1687350894858396200,21.939396240234377,5.6608405113220215,4.4896650314331055,-10.315884590148926
1687350894878505000,21.9595048828125,-0.8460108041763306,1.8794338703155518,-9.886850357055664
1687350894898614300,21.9796142578125,-3.8843259811401367,1.6729960441589355,-0.9935064315795898
1687350894918723800,21.999723876953126,-4.540091037750244,1.8338022232055664,4.376147270202637
1687350894938834000,22.019833984375,-3.6376943588256836,1.8071465492248535,4.161012649536133
1687350894958944500,22.039944580078124,-3.411986827850342,1.019472599029541,0.9289045333862305
1687350894979055600,22.0600556640625,-1.7296254634857178,0.37783360481262207,-1.9395685195922852
1687350894999166700,22.080166748046874,1.1189870834350586,-0.08288872241973877,-2.246549606323242
1687350895019278300,22.1002783203125,3.0115256309509277,-0.49965739250183105,-2.0585784912109375
1687350895039390000,22.120389892578125,3.2577414512634277,-0.4795835018157959,-1.2414264678955078
1687350895059501600,22.14050146484375,2.212784767150879,-0.24131548404693604,0.017627716064453125
1687350895079613200,22.16061328125,0.6840944886207581,0.05992484092712402,0.6565732955932617
1687350895099723000,22.180722900390624,-0.3387776017189026,0.6911007165908813,1.0577459335327148
1687350895119832600,22.20083251953125,-1.0464438199996948,0.8678146600723267,0.4186277389526367
1687350895139942400,22.2209423828125,-1.1242985725402832,1.2049744129180908,0.29123497009277344
1687350895160052000,22.241052001953125,-0.48130494356155396,1.1807941198349,0.21271514892578125
1687350895180161800,22.261161865234374,-0.6180315613746643,0.828050971031189,-0.7740039825439453
1687350895200271400,22.281271240234375,-0.42941009998321533,0.8067305088043213,-1.1019411087036133
1687350895220381200,22.301381103515624,-0.09944282472133636,0.7065843343734741,-0.24756240844726562
1687350895240490800,22.32149072265625,-0.6838922500610352,0.48088014125823975,-0.5731935501098633
1687350895260600600,22.3416005859375,-0.9683656692504883,0.6232267618179321,-0.38881397247314453
1687350895280710100,22.361710205078126,-0.6783300042152405,0.46232283115386963,-0.003421783447265625
1687350895300819700,22.38181982421875,-0.6784581542015076,0.465639591217041,-0.9213790893554688
1687350895320929500,22.401929443359375,-0.3267129957675934,0.7347290515899658,-0.2457733154296875
1687350895341039000,22.4220390625,-0.2240520417690277,0.6733957529067993,-0.02388477325439453
1687350895361149000,22.44214892578125,-0.03909139335155487,0.7333542108535767,-0.5172662734985352
1687350895381258500,22.462258544921873,0.46006515622138977,0.6527615785598755,-0.36954212188720703
1687350895401368300,22.482368408203126,0.5220444202423096,0.6035351753234863,-0.5370941162109375
1687350895421478000,22.502477783203126,0.6182887554168701,0.7193100452423096,-0.32759761810302734
1687350895441587700,22.522587646484375,0.37808728218078613,0.6219925880432129,-0.06119060516357422
1687350895461697300,22.542697265625,0.12676963210105896,0.7925256490707397,-0.2576475143432617
1687350895481807000,22.56280712890625,0.30156710743904114,0.6664987802505493,-0.02373218536376953
1687350895501916700,22.582916748046873,0.8095681667327881,0.7147426605224609,-0.04686260223388672
1687350895522026500,22.603026611328126,0.9765292406082153,0.6913399696350098,-0.054909706115722656
1687350895542136000,22.623135986328126,0.648120641708374,0.6660137176513672,-0.09065628051757812
1687350895562246000,22.643245849609375,0.3133966028690338,0.7321774959564209,-0.1920022964477539
1687350895582355500,22.66335546875,0.058476150035858154,0.6285058259963989,-0.38768959045410156
1687350895602465000,22.683465087890625,0.15694761276245117,0.7172427177429199,-0.41648101806640625
1687350895622574800,22.703574951171873,0.44015130400657654,0.8397189378738403,-0.05870628356933594
1687350895642684400,22.723684326171874,0.7461980581283569,1.0606653690338135,-0.010493278503417969
1687350895662794200,22.743794189453126,0.9434837102890015,1.2460877895355225,0.23094558715820312
1687350895682903800,22.76390380859375,0.5997631549835205,1.1432983875274658,0.1298837661743164
1687350895703013600,22.784013671875,0.20011234283447266,1.2593207359313965,0.5046815872192383
1687350895723123200,22.804123291015625,0.11997553706169128,1.4256668090820312,1.3308782577514648
1687350895743233000,22.82423291015625,0.19300563633441925,1.729107141494751,2.1915340423583984
1687350895763342600,22.844342529296874,0.01420716941356659,1.7468757629394531,2.5942344665527344
1687350895783452400,22.864452392578126,0.04446445405483246,1.9863202571868896,3.026309013366699
1687350895803562000,22.88456201171875,0.10682886838912964,2.3863632678985596,4.656001091003418
1687350895823671800,22.904671875,0.13977226614952087,3.1258931159973145,7.510808944702148
1687350895843781400,22.924781494140625,0.0353703498840332,3.406020402908325,11.037993431091309
1687350895863891200,22.94489111328125,0.5485607981681824,3.037667989730835,14.274052619934082
1687350895884000800,22.965000732421874,2.3991854190826416,1.6045832633972168,14.136374473571777
1687350895904110300,22.9851103515625,3.4804701805114746,0.08134889602661133,11.379619598388672
1687350895924220200,23.00522021484375,3.1681737899780273,-1.825477123260498,8.50340747833252
1687350895944329700,23.025329833984376,2.602890729904175,-4.158095359802246,5.157620429992676
1687350895964439600,23.045439453125,2.2655231952667236,-6.3884100914001465,1.9760465621948242
1687350895984549000,23.065549072265625,1.971027135848999,-7.908927917480469,1.3575854301452637
1687350896004659000,23.085658935546874,1.1375420093536377,-9.826746940612793,1.0631904602050781
1687350896024768500,23.1057685546875,0.48225870728492737,-11.811107635498047,0.5141201019287109
1687350896044878300,23.12587841796875,-0.06830005347728729,-13.408897399902344,0.38116025924682617
1687350896064988000,23.14598779296875,-0.2569020688533783,-15.041820526123047,-0.10744500160217285
1687350896085097700,23.16609765625,0.13115006685256958,-17.122243881225586,-0.03739240765571594
1687350896105207300,23.186207275390625,-0.002470076084136963,-22.351749420166016,1.835001826286316
1687350896125317000,23.206317138671874,0.09716671705245972,-34.277103424072266,2.502748727798462
1687350896145426700,23.2264267578125,7.844717979431152,-45.515357971191406,-8.391757011413574
1687350896165536500,23.24653662109375,28.91058921813965,-41.58894729614258,-45.98282241821289
1687350896185646000,23.26664599609375,33.27499008178711,-50.06988525390625,-58.50339126586914
1687350896205755600,23.286755615234377,10.36348819732666,-71.02818298339844,-31.640323638916016
1687350896225865500,23.306865478515626,-12.648550033569336,-90.82129669189453,1.8371868133544922
1687350896245975000,23.32697509765625,-13.861830711364746,-91.84388732910156,65.07647705078125
1687350896266084900,23.3470849609375,5.498279571533203,-38.326759338378906,108.12142944335938
1687350896286194400,23.3671943359375,69.81500244140625,-18.3385009765625,89.476806640625
1687350896306304300,23.38730419921875,60.538063049316406,0.6581794023513794,27.14168930053711
1687350896326413800,23.407413818359377,12.574512481689453,3.238814115524292,13.971290588378906
1687350896346523600,23.427523681640626,-4.500147819519043,10.348882675170898,9.126387596130371
1687350896366633200,23.44763330078125,4.939735412597656,12.037940979003906,15.9296236038208
1687350896386743000,23.467742919921875,10.247373580932617,11.4723539352417,21.216413497924805
1687350896406852600,23.4878525390625,6.358088493347168,6.209728240966797,22.600818634033203
1687350896426962400,23.50796240234375,-0.03801453113555908,-0.7713413238525391,19.876625061035156
1687350896447072000,23.528072021484373,-4.487497329711914,-6.697150707244873,12.693195343017578
1687350896467181800,23.548181884765626,-5.245378494262695,-10.525866508483887,7.052155017852783
1687350896487291400,23.56829150390625,-2.9550318717956543,-13.897806167602539,3.8764796257019043
1687350896507401200,23.588401123046875,-0.7668257355690002,-17.012725830078125,0.9926753044128418
1687350896527510800,23.6085107421875,1.2532458305358887,-18.749292373657227,-0.5109496116638184
1687350896547620400,23.628620361328124,2.5446200370788574,-19.90550422668457,-0.5902378559112549
1687350896567730200,23.648730224609373,2.580531597137451,-22.0521240234375,0.07914963364601135
1687350896587839700,23.66883984375,0.9401450157165527,-25.94100570678711,1.8171511888504028
1687350896607949600,23.688949462890626,0.06929793953895569,-32.16923904418945,6.4263916015625
1687350896628059100,23.70905908203125,0.9656099081039429,-41.26264953613281,9.161407470703125
1687350896648169000,23.7291689453125,5.696528911590576,-49.3912467956543,-7.384206295013428
1687350896668278500,23.749278564453125,28.452260971069336,-40.89102554321289,-52.041297912597656
1687350896688388400,23.769388427734373,33.66574478149414,-57.855079650878906,-54.104042053222656
1687350896708498000,23.789497802734374,8.888065338134766,-85.51510620117188,-24.6734676361084
1687350896728607700,23.809607666015626,-10.617822647094727,-115.65476989746094,3.5979413986206055
1687350896748717300,23.82971728515625,-11.415249824523926,-116.20093536376953,93.18064880371094
1687350896768827100,23.8498271484375,30.579566955566406,-25.58158302307129,147.23326110839844
1687350896788936700,23.869936767578125,83.10089111328125,-2.0536367893218994,76.16325378417969
1687350896809046500,23.890046630859374,28.965333938598633,5.494831085205078,-3.260589599609375
1687350896829156000,23.910156005859374,-15.831787109375,6.107985973358154,0.2052326202392578
1687350896849265700,23.930265625,-12.49948787689209,10.582460403442383,-3.984488010406494
1687350896869375500,23.95037548828125,5.2606892585754395,11.244928359985352,-4.642548084259033
1687350896889485000,23.970485107421876,2.650470733642578,8.431140899658203,4.606718063354492
1687350896909595000,23.990594970703125,-5.3446502685546875,4.965048789978027,6.721915245056152
1687350896929704400,24.010704345703125,-6.4095282554626465,2.664133071899414,1.5506305694580078
1687350896949814300,24.030814208984374,-3.004631757736206,1.386839509010315,-1.6029901504516602
1687350896969923800,24.050923828125,-1.051032304763794,0.19320297241210938,-2.864539623260498
1687350896990033700,24.07103369140625,0.28223711252212524,-0.8380331993103027,-2.8796439170837402
1687350897010143200,24.091143310546876,2.202500820159912,-1.539524793624878,-3.5660605430603027
1687350897030253000,24.111253173828125,3.129274368286133,-1.9197518825531006,-4.7893266677856445
1687350897050362600,24.131362548828125,2.5615665912628174,-1.7880021333694458,-3.921381950378418
1687350897070472400,24.151472412109374,1.637830376625061,-1.5418930053710938,-1.296513557434082
1687350897090582000,24.17158203125,1.5194615125656128,-1.1905972957611084,0.5380964279174805
1687350897110691800,24.19169189453125,1.7798452377319336,-0.7290496826171875,0.47237110137939453
1687350897130801400,24.211801513671876,1.6726570129394531,-0.4756772518157959,-0.6982402801513672
1687350897150911000,24.231910888671877,1.0568827390670776,-0.2412813901901245,-1.6408376693725586
1687350897171020800,24.252020751953125,0.1683354675769806,-0.07773113250732422,-1.7058162689208984
1687350897191130400,24.27213037109375,-0.06371169537305832,0.08431673049926758,-1.1750288009643555
1687350897211240200,24.292240234375,-0.32770606875419617,0.1510835886001587,-0.9988365173339844
1687350897231349800,24.312349853515624,-0.15429279208183289,0.3259413242340088,-0.5321435928344727
1687350897251459600,24.33245947265625,-0.1906185746192932,0.40106379985809326,-0.1322641372680664
1687350897271569200,24.352569091796877,-0.18893811106681824,0.5235610008239746,-0.102996826171875
1687350897291679000,24.372678955078126,-0.02536711096763611,0.5463711023330688,-0.4732017517089844
1687350897311788500,24.39278857421875,-0.11687907576560974,0.6722589731216431,-0.6582498550415039
1687350897331898400,24.4128984375,0.20945003628730774,0.9568189382553101,-0.2857637405395508
1687350897352008000,24.433008056640624,0.216319739818573,1.0659226179122925,-0.25186634063720703
1687350897372117800,24.45311767578125,0.1383528709411621,1.2782357931137085,-0.36527347564697266
1687350897392227600,24.4732275390625,0.016914665699005127,1.3258259296417236,0.13121700286865234
1687350897412337200,24.493337158203126,-0.1375301480293274,1.4383043050765991,0.5313854217529297
1687350897432447000,24.513447021484374,0.027927637100219727,1.3406367301940918,0.6658058166503906
1687350897452556800,24.533556884765623,0.2475098967552185,1.4131375551223755,0.45857810974121094
1687350897472666400,24.553666259765624,0.43277692794799805,1.3972233533859253,0.9155178070068359
1687350897492776200,24.573776123046876,0.7519805431365967,1.4272449016571045,1.7255821228027344
1687350897512886000,24.593885986328125,1.018861174583435,1.6055241823196411,2.2505569458007812
1687350897532995600,24.61399560546875,0.9356371164321899,1.572425365447998,2.4452362060546875
1687350897553105400,24.63410546875,0.8151054382324219,1.6281349658966064,2.4124298095703125
1687350897573215200,24.65421533203125,0.8582925796508789,1.4794880151748657,2.459183692932129
1687350897593324800,24.67432470703125,1.2048683166503906,1.5822291374206543,2.40183162689209
1687350897613434600,24.6944345703125,1.3302407264709473,1.3697679042816162,2.290983200073242
1687350897633544400,24.71454443359375,1.288801908493042,1.1889894008636475,1.7915544509887695
1687350897653654000,24.734654052734374,0.8003857731819153,0.9024343490600586,1.0985345840454102
1687350897673763800,24.754763916015627,0.26273083686828613,0.7548892498016357,0.9257011413574219
1687350897693873700,24.774873779296875,0.3176853060722351,0.6731905937194824,1.761453628540039
1687350897713983200,24.794983154296876,0.7435208559036255,0.5493757724761963,2.6815719604492188
1687350897734093000,24.815093017578125,0.8035670518875122,0.42770957946777344,3.1864500045776367
1687350897754203000,24.835202880859374,0.960923433303833,0.22373580932617188,3.800320625305176
1687350897774314800,24.855314697265626,1.5306564569473267,0.10846805572509766,4.398275375366211
1687350897794422800,24.8754228515625,1.8082185983657837,-0.010620594024658203,5.106287002563477
1687350897814530800,24.89553076171875,1.496302604675293,-0.32684803009033203,5.2045087814331055
1687350897834639000,24.91563916015625,0.9786158800125122,-0.8378043174743652,4.39699649810791
1687350897854747400,24.935747314453124,0.42176735401153564,-1.4244847297668457,3.515711784362793
1687350897874856000,24.95585595703125,0.1768437623977661,-1.8949522972106934,3.117035388946533
1687350897894964700,24.97596484375,-0.16636604070663452,-2.319610118865967,3.2520837783813477
1687350897915073800,24.99607373046875,0.09334194660186768,-2.8830628395080566,4.157618045806885
1687350897935183000,25.01618310546875,0.8419265747070312,-4.015987396240234,5.076706409454346
1687350897955293000,25.03629296875,1.39006507396698,-6.192061424255371,4.5697126388549805
1687350897975402800,25.05640283203125,1.5129754543304443,-9.180419921875,1.4510939121246338
1687350897995513000,25.07651318359375,1.0114082098007202,-12.42675495147705,-1.1694668531417847
1687350898015623400,25.09662353515625,0.3790435791015625,-18.92071533203125,-0.4607640504837036
1687350898035734000,25.116734130859374,0.3005451261997223,-32.53594207763672,0.00646519660949707
1687350898055844900,25.136844970703127,4.701247215270996,-47.597957611083984,-12.551138877868652
1687350898075955700,25.156955810546876,18.13512420654297,-43.76988220214844,-52.59061813354492
1687350898096066800,25.17706689453125,21.185834884643555,-51.72311782836914,-64.12260437011719
1687350898116177700,25.197177734375,3.8845138549804688,-71.00403594970703,-30.56416893005371
1687350898136288000,25.2172880859375,-17.902423858642578,-83.72149658203125,2.941521167755127
1687350898156397800,25.237397705078124,-21.671131134033203,-78.71016693115234,39.0600700378418
1687350898176507400,25.25750732421875,11.917449951171875,-51.33789825439453,82.01727294921875
1687350898196617000,25.277616943359376,66.84822082519531,-27.623483657836914,82.95677947998047
1687350898216726800,25.297726806640625,64.80448150634766,-4.755441665649414,35.42327880859375
1687350898236836400,25.31783642578125,36.5343017578125,-2.367206573486328,33.517250061035156
1687350898256946200,25.3379462890625,21.25211524963379,3.9926066398620605,26.49858856201172
1687350898277055700,25.3580556640625,19.640975952148438,6.826819896697998,22.66562271118164
