time,seconds_elapsed,z,y,x
1687353384054697500,0.125697509765625,0.10040109604597092,0.332894891500473,-0.2227732539176941
1687353384074760200,0.14576025390625,0.592552900314331,-0.4788359999656677,-0.20572903752326965
1687353384094841900,0.165841796875,0.9259804487228394,-0.43942126631736755,-0.15353111922740936
1687353384114943700,0.18594384765625,0.915327787399292,-0.3158506751060486,0.0648479238152504
1687353384135064800,0.20606494140625,0.6639255881309509,-0.5672528743743896,0.1628521829843521
1687353384155204400,0.226204345703125,0.17923060059547424,-0.38935387134552,0.07123950868844986
1687353384175360500,0.246360595703125,-0.19467693567276,-0.6972150802612305,0.09680583328008652
1687353384195531000,0.266531005859375,-0.3171822428703308,-0.9922930598258972,0.29281434416770935
1687353384215712500,0.28671240234375,-0.31505173444747925,-0.5193160176277161,0.2864227592945099
1687353384235902200,0.306902099609375,-0.372575968503952,0.28495803475379944,-0.10879004746675491
1687353384256096500,0.327096435546875,-0.36192330718040466,1.0327731370925903,-0.6691187024116516
1687353384276292000,0.3472919921875,-0.3842938542366028,1.1510173082351685,-1.3540832996368408
1687353384296434700,0.3674345703125,-0.07643266767263412,0.6876276731491089,-1.9186729192733765
1687353384316547300,0.38754736328125,0.5797697305679321,0.7036066055297852,-1.7365128993988037
1687353384336660200,0.40766015625,0.6202497482299805,0.47350969910621643,-1.2603400945663452
1687353384356772900,0.42777294921875,0.31558436155319214,0.4138549268245697,-0.7010766267776489
1687353384376885500,0.447885498046875,-0.14993585646152496,0.2689790725708008,-0.14820480346679688
1687353384396998100,0.467998046875,-0.23089589178562164,-0.08894951641559601,0.03821633383631706
1687353384417110800,0.48811083984375,-0.15845796465873718,-0.32650330662727356,-0.02996053919196129
1687353384437223400,0.508223388671875,-0.14567480981349945,-0.5097286701202393,-0.0810931921005249
1687353384457336000,0.528336181640625,0.01837579719722271,-0.16351796686649323,0.1639174371957779
1687353384477448700,0.54844873046875,0.02157158963382244,-0.020772641524672508,0.2992059290409088
1687353384497561300,0.568561279296875,0.07803056389093399,0.026098959147930145,0.2715090811252594
1687353384517674000,0.588674072265625,0.3890875577926636,-0.1933453530073166,0.3226417303085327
1687353384537786600,0.60878662109375,0.2601906359195709,-0.2785664498806,0.4067975580692291
1687353384557899300,0.628899169921875,0.052464235574007034,-0.20080219209194183,0.5378249883651733
1687353384578012000,0.649011962890625,0.0034621069207787514,-0.29028433561325073,0.7189198136329651
1687353384598124500,0.66912451171875,0.048203181475400925,-0.3254380524158478,0.6837661266326904
1687353384618237200,0.6892373046875,0.04287686198949814,-0.47244441509246826,0.6912229657173157
1687353384638349800,0.709349853515625,-0.010386320762336254,-0.6471476554870605,0.6890923976898193
1687353384658462700,0.729462646484375,-0.021038956940174103,-0.4852275848388672,0.6155892014503479
1687353384678575400,0.749575439453125,0.010918952524662018,-0.21358536183834076,0.46645233035087585
1687353384698688000,0.76968798828125,0.03328948840498924,0.21891167759895325,0.22570273280143738
1687353384718800600,0.789800537109375,0.11318425834178925,0.1368863731622696,0.2576606571674347
1687353384738913300,0.809913330078125,0.09614004194736481,-0.12197268754243851,0.31518489122390747
1687353384759026000,0.83002587890625,-0.007190529722720385,-0.4287686049938202,0.38762280344963074
1687353384779138600,0.850138671875,-0.0679105594754219,-0.5374255180358887,0.3854922652244568
1687353384799251500,0.87025146484375,-0.035952646285295486,-0.4032022953033447,0.3002711832523346
1687353384819364000,0.890364013671875,0.02583264373242855,-0.19654114544391632,0.17563533782958984
1687353384839476700,0.910476806640625,0.02583264373242855,-0.10066741704940796,0.07763108611106873
1687353384859589600,0.930589599609375,-0.00612526573240757,-0.06018739566206932,0.03928159549832344
1687353384879702300,0.950702392578125,-0.008255792781710625,-0.03994738683104515,0.09041424840688705
1687353384899815200,0.970815185546875,0.013049479573965073,-0.09214530140161514,0.17030902206897736
1687353384919927800,0.990927734375,0.013049479573965073,-0.22743378579616547,0.22144168615341187
1687353384940040700,1.011040771484375,-0.0018642114009708166,-0.38722333312034607,0.27896592020988464
1687353384960153300,1.0311533203125,0.0002663159102667123,-0.5438171029090881,0.37803542613983154
1687353384980266200,1.051266357421875,-0.027430538088083267,-0.6205160617828369,0.4685828387737274
1687353385000379000,1.07137890625,0.02583264373242855,-0.540621280670166,0.4355596601963043
1687353385020491800,1.09149169921875,0.0034621069207787514,-0.40213701128959656,0.36738279461860657
1687353385040604400,1.1116044921875,-0.07643266767263412,-0.4415517747402191,0.45366916060447693
1687353385060717000,1.131717041015625,-0.19148114323616028,-0.8293077349662781,0.7008103132247925
1687353385080830000,1.151829833984375,-0.29161593317985535,-1.324655294418335,1.025715708732605
1687353385100942600,1.171942626953125,-0.3416832983493805,-1.7752618789672852,1.311206340789795
1687353385121055500,1.192055419921875,-0.47590652108192444,-2.520946502685547,1.6861791610717773
1687353385141168000,1.212168212890625,-0.6644582152366638,-3.830155372619629,2.277400493621826
1687353385161281000,1.232281005859375,-0.7283740043640137,-4.678105354309082,2.3509037494659424
1687353385181393700,1.2523935546875,-0.393881231546402,-3.482879400253296,0.7008103132247925
1687353385201506600,1.272506591796875,0.8364982604980469,2.0767314434051514,-4.458261489868164
1687353385221619200,1.292619140625,2.2927136421203613,12.939225196838379,-12.411520004272461
1687353385241732000,1.312732177734375,2.860499143600464,24.95326805114746,-18.340776443481445
1687353385261844700,1.3328447265625,3.8991312980651855,26.387113571166992,-16.12076759338379
1687353385281957600,1.35295751953125,5.254146575927734,14.19410514831543,-3.1650314331054688
1687353385302070300,1.3730703125,3.9779608249664307,-1.4631396532058716,8.72970199584961
1687353385322183200,1.39318310546875,4.129228115081787,-6.116211414337158,9.078043937683105
1687353385342295800,1.4132958984375,4.15585994720459,-1.7251944541931152,4.240681171417236
1687353385362408700,1.43340869140625,1.7249281406402588,-0.9060067534446716,2.537324905395508
1687353385382521300,1.453521240234375,-0.31611698865890503,-6.405962944030762,3.835881233215332
1687353385402634000,1.473634033203125,-0.33316120505332947,-11.37435245513916,5.492366313934326
1687353385422747000,1.493746826171875,0.13235901296138763,-13.4697265625,7.763508319854736
1687353385442859500,1.513859619140625,-0.2692453861236572,-14.949377059936523,10.75263786315918
1687353385462972400,1.533972412109375,-0.9936246871948242,-16.572839736938477,12.2727689743042
1687353385483085000,1.5540849609375,-0.9307740926742554,-17.297218322753906,11.640002250671387
1687353385503197700,1.57419775390625,-0.42903491854667664,-16.31184959411621,9.883382797241211
1687353385523310600,1.594310546875,0.6117276549339294,-11.605514526367188,6.424471855163574
1687353385543423200,1.61442333984375,3.3633036613464355,-2.2855231761932373,0.04354264959692955
1687353385563536000,1.634535888671875,7.002243995666504,8.904006004333496,-7.883084297180176
1687353385583648500,1.6546484375,9.934914588928223,16.747541427612305,-15.516763687133789
1687353385603761400,1.674761474609375,11.613770484924316,22.082382202148438,-21.68463897705078
1687353385623874000,1.6948740234375,11.649989128112793,23.57162094116211,-22.654029846191406
1687353385643986700,1.714986572265625,11.00230884552002,22.095165252685547,-13.311667442321777
1687353385664099600,1.735099609375,7.9119791984558105,14.495574951171875,0.4589954614639282
1687353385684212200,1.755212158203125,2.1222715377807617,2.4133548736572266,10.14330768585205
1687353385704324900,1.775324951171875,1.91241455078125,-3.6842143535614014,10.477800369262695
1687353385724437500,1.7954375,4.25599479675293,-0.03994738683104515,6.345642566680908
1687353385744550400,1.81555029296875,3.6850132942199707,4.269043922424316,3.4651694297790527
1687353385764663000,1.8356630859375,1.6503597497940063,2.8288075923919678,2.993257761001587
1687353385784775700,1.855775634765625,0.4391549229621887,-1.3416996002197266,2.8473165035247803
1687353385804888300,1.875888427734375,0.5850960612297058,-3.694866895675659,2.045172929763794
1687353385825001200,1.896001220703125,1.0058752298355103,-4.234955787658691,1.5093454122543335
1687353385845113900,1.91611376953125,0.9089362025260925,-3.9153764247894287,1.2909663915634155
1687353385865226500,1.9362265625,0.5797697305679321,-3.5947320461273193,0.7210503220558167
1687353385885339100,1.956339111328125,0.2324937880039215,-3.706584930419922,-0.012916321866214275
1687353385905452000,1.9764521484375,-0.04554001986980438,-4.031490325927734,-0.4113249182701111
1687353385925564700,1.996564697265625,-0.22663484513759613,-4.077296733856201,-0.5018723607063293
1687353385945677300,2.01667724609375,-0.2948117256164551,-3.9068543910980225,-0.5327649712562561
1687353385965790200,2.036790283203125,-0.30652961134910583,-3.914311170578003,-0.434760719537735
1687353385985902800,2.05690283203125,-0.4077296555042267,-3.844003915786743,-0.13648690283298492
1687353386006015500,2.077015380859375,-0.40453386306762695,-3.5489258766174316,0.09893636405467987
1687353386026128100,2.097128173828125,-0.2330264151096344,-2.7265422344207764,-0.16951008141040802
1687353386046240800,2.11724072265625,0.12596742808818817,-2.0224030017852783,-0.5562008023262024
1687353386066353400,2.137353515625,0.4881570637226105,-1.625059723854065,-0.6403566002845764
1687353386086466000,2.157466064453125,0.5392897129058838,-1.0434256792068481,-0.558331310749054
1687353386106578700,2.17757861328125,0.3752391040325165,-0.28389275074005127,-0.5380913019180298
1687353386126691300,2.19769140625,0.28682222962379456,0.04527370631694794,-0.6787061095237732
1687353386146804000,2.217803955078125,0.2751043438911438,0.17204007506370544,-0.7309040427207947
1687353386166916600,2.23791650390625,0.2527337968349457,0.15606112778186798,-0.6328997611999512
1687353386187029200,2.258029296875,0.16431692242622375,0.03675159439444542,-0.35167014598846436
1687353386207142100,2.27814208984375,0.0727042406797409,-0.09214530140161514,0.0019973693415522575
1687353386227254800,2.2982548828125,0.02263685315847397,-0.20506325364112854,0.17883113026618958
1687353386247367400,2.318367431640625,-0.008255792781710625,-0.16245271265506744,0.1916143000125885
1687353386267480000,2.33847998046875,-0.07004108279943466,0.027164222672581673,0.13409006595611572
1687353386287592700,2.3585927734375,-0.07536740601062775,0.19654114544391632,0.07017423957586288
1687353386307705300,2.378705322265625,-0.03275685757398605,0.3105243444442749,0.041412122547626495
1687353386327818000,2.39881787109375,0.0141147430986166,0.287088543176651,0.0882837250828743
1687353386347930600,2.4189306640625,0.060986343771219254,0.12197268754243851,0.19054903090000153
1687353386368043300,2.439043212890625,0.1579253375530243,-0.07829687744379044,0.30240172147750854
1687353386388156000,2.459156005859375,0.24421168863773346,-0.19441060721874237,0.35033857822418213
1687353386408268500,2.4792685546875,0.32943278551101685,-0.14966954290866852,0.3183806836605072
1687353386428381200,2.499381103515625,0.3826959729194641,-0.03249054029583931,0.25553011894226074
1687353386448493800,2.519493896484375,0.3837612271308899,0.03568633273243904,0.20333220064640045
1687353386468606500,2.5396064453125,0.3656517565250397,0.08788424730300903,0.196940615773201
1687353386488719000,2.559718994140625,0.41358861327171326,0.0751010850071907,0.28748801350593567
1687353386508831700,2.579831787109375,0.4860265254974365,-0.022903168573975563,0.5175849795341492
1687353386528944600,2.599944580078125,0.4593949317932129,-0.276435911655426,0.7231808304786682
1687353386549057300,2.620057373046875,0.37097805738449097,-0.5416865348815918,0.7583345770835876
1687353386569170000,2.640169921875,0.31558436155319214,-0.720650851726532,0.6390250325202942
1687353386589282600,2.660282470703125,0.24634221196174622,-0.820785641670227,0.5282375812530518
1687353386609395200,2.680395263671875,0.08442214131355286,-0.774979293346405,0.5133239030838013
1687353386629507800,2.7005078125,-0.1435442715883255,-0.9486172795295715,0.5580649971961975
1687353386649620500,2.720620361328125,-0.47484126687049866,-1.5558176040649414,0.7114629745483398
1687353386669733000,2.740733154296875,-0.8487488031387329,-2.2248032093048096,0.9543430805206299
1687353386689845800,2.760845703125,-1.2982900142669678,-3.4210941791534424,1.5231938362121582
1687353386709958400,2.78095849609375,-1.7563533782958984,-5.6677350997924805,2.665156364440918
1687353386730071000,2.801071044921875,-2.0844545364379883,-8.72291088104248,4.093675136566162
1687353386750183700,2.82118359375,-2.210155725479126,-11.504314422607422,5.104610443115234
1687353386770296300,2.84129638671875,-2.3752715587615967,-12.669713020324707,5.371991157531738
1687353386790409000,2.861408935546875,-2.3518357276916504,-11.832415580749512,4.644416332244873
1687353386810521600,2.881521484375,-1.04475736618042,-7.112232685089111,1.63291597366333
1687353386830634500,2.901634521484375,3.332411050796509,2.8245465755462646,-4.781036376953125
1687353386850747100,2.9217470703125,10.32586669921875,15.127276420593262,-13.430976867675781
1687353386870859800,2.94185986328125,15.011961936950684,24.823305130004883,-20.091005325317383
1687353386890972400,2.961972412109375,16.56511688232422,28.280086517333984,-18.80203628540039
1687353386911085000,2.9820849609375,15.150445938110352,25.41878890991211,-7.301450252532959
1687353386931197700,3.00219775390625,6.943654537200928,9.226780891418457,7.72515869140625
1687353386951310300,3.022310302734375,0.8492814302444458,-11.38713550567627,11.81896686553955
1687353386971423000,3.042423095703125,2.5590295791625977,-11.486205101013184,7.1818742752075195
1687353386991535600,3.06253564453125,0.9536772966384888,-2.975813865661621,4.46971321105957
1687353387011648300,3.082648193359375,-1.798964023590088,0.09001477807760239,4.055325508117676
1687353387031761000,3.102760986328125,-2.567018985748291,-3.422159433364868,4.212984561920166
1687353387051873500,3.12287353515625,-2.260223150253296,-9.500554084777832,5.6095452308654785
1687353387071986200,3.142986083984375,-2.0823240280151367,-13.803153991699219,8.354729652404785
1687353387092098800,3.163098876953125,-2.1323914527893066,-15.649255752563477,10.778203964233398
1687353387112211500,3.18321142578125,-2.5212128162384033,-16.663387298583984,11.134002685546875
1687353387132324000,3.203323974609375,-2.488189458847046,-16.986162185668945,9.959016799926758
1687353387152437000,3.22343701171875,-1.2024163007736206,-15.15284252166748,7.519562721252441
1687353387172549600,3.243549560546875,2.149968385696411,-6.395310401916504,1.1482210159301758
1687353387192662300,3.263662353515625,7.325018882751465,8.696279525756836,-7.676423072814941
1687353387212775000,3.28377490234375,12.544811248779297,18.22506332397461,-15.81503677368164
1687353387232887600,3.303887451171875,16.43515396118164,23.615297317504883,-22.399431228637695
1687353387253000200,3.324000244140625,17.89349937438965,24.41530990600586,-20.02069854736328
1687353387273112800,3.34411279296875,15.621292114257812,25.029966354370117,-4.514720439910889
1687353387293225500,3.3642255859375,5.50554895401001,16.446073532104492,6.364817142486572
1687353387313338000,3.384338134765625,-0.9371656775474548,-1.4386385679244995,9.316662788391113
1687353387333450800,3.40445068359375,1.2412984371185303,-6.483726978302002,6.98906135559082
1687353387353563400,3.4245634765625,2.418414831161499,-1.2128026485443115,5.712875843048096
1687353387373676000,3.444676025390625,1.8602166175842285,2.133190393447876,4.352534294128418
1687353387393788700,3.46478857421875,1.238102674484253,0.9986846446990967,2.119741439819336
1687353387413901300,3.4849013671875,0.6032055616378784,-1.466335415840149,1.0076062679290771
1687353387434014000,3.505013916015625,-0.11478215456008911,-2.9246814250946045,1.0906968116760254
1687353387454126600,3.525126708984375,-0.4343612492084503,-2.842656135559082,1.3666000366210938
1687353387474239500,3.545239501953125,-0.4716454744338989,-2.46022629737854,1.2622042894363403
1687353387494352100,3.56535205078125,-0.4865591824054718,-2.8639612197875977,0.9341030716896057
1687353387514464800,3.58546484375,-0.4460791349411011,-3.6884753704071045,0.4504733681678772
1687353387534577400,3.605577392578125,-0.40453386306762695,-4.416050434112549,-0.051265813410282135
1687353387554690000,3.62568994140625,-0.33955278992652893,-5.25441312789917,-0.15992270410060883
1687353387574802400,3.645802490234375,-0.10945583879947662,-6.177996635437012,0.15965639054775238
1687353387594915000,3.6659150390625,0.09827057272195816,-6.6946492195129395,0.7924230098724365
1687353387615027700,3.68602783203125,0.3368896245956421,-6.412354469299316,1.0917620658874512
1687353387635140400,3.706140380859375,0.659664511680603,-5.436573028564453,0.6113281846046448
1687353387655253000,3.7262529296875,0.8641951084136963,-4.128429412841797,-0.0672447681427002
1687353387675365600,3.74636572265625,0.9004141092300415,-3.0237507820129395,-0.5316997170448303
1687353387695478300,3.766478271484375,0.7917572259902954,-2.088449478149414,-0.8491482734680176
1687353387715590700,3.786590576171875,0.5456812977790833,-1.3331774473190308,-0.8672577738761902
1687353387735703300,3.806703369140625,0.37204334139823914,-0.8772445917129517,-0.6179860830307007
1687353387755816000,3.82681591796875,0.32836753129959106,-0.796284556388855,-0.2962764501571655
1687353387775928600,3.846928466796875,0.3518033027648926,-0.6929540038108826,-0.1514005959033966
1687353387796041200,3.867041259765625,0.32091066241264343,-0.49268442392349243,-0.1940111368894577
1687353387816153900,3.88715380859375,0.15366427600383759,-0.17736639082431793,-0.2834932804107666
1687353387836266500,3.9072666015625,-0.0007989477599039674,0.09108003973960876,-0.34740909934043884
1687353387856379000,3.92737890625,-0.09347688406705856,0.18908429145812988,-0.2877543270587921
1687353387876491500,3.947491455078125,-0.12863057851791382,0.14221268892288208,-0.10559425503015518
1687353387896604200,3.967604248046875,-0.13289164006710052,-0.0708400309085846,0.1213068962097168
1687353387916716800,3.987716796875,-0.1573926955461502,-0.18908429145812988,0.3663175404071808
1687353387936829400,4.007829345703125,-0.1627190262079239,-0.11238531768321991,0.4696480929851532
1687353387956942000,4.027942138671875,-0.09986846894025803,-0.018642114475369453,0.34394699335098267
1687353387977054700,4.0480546875,-0.07110634446144104,0.1081242561340332,0.19800588488578796
1687353387997167400,4.06816748046875,-0.05193160101771355,0.11877689510583878,0.11385004967451096
1687353388017279700,4.08827978515625,-0.03275685757398605,0.013315795920789242,0.17563533782958984
1687353388037392400,4.108392333984375,-0.029561065137386322,-0.1592569202184677,0.2800311744213104
1687353388057505000,4.128505126953125,-0.05725792050361633,-0.35100436210632324,0.3791007101535797
1687353388077617400,4.148617431640625,-0.15100112557411194,-0.4596612751483917,0.4547344148159027
1687353388097730000,4.16872998046875,-0.25859275460243225,-0.4841623306274414,0.47071337699890137
1687353388117842700,4.1888427734375,-0.23409168422222137,-0.49694550037384033,0.46219125390052795
1687353388137955000,4.208955078125,-0.19893798232078552,-0.42131176590919495,0.4824312627315521
1687353388158067700,4.229067626953125,-0.21491694450378418,-0.297741174697876,0.5250418186187744
1687353388178180400,4.249180419921875,-0.22556957602500916,-0.20506325364112854,0.5484775900840759
1687353388198292700,4.269292724609375,-0.21491694450378418,-0.21891167759895325,0.5506081581115723
1687353388218405400,4.2894052734375,-0.19254639744758606,-0.2956106662750244,0.551673412322998
1687353388238518000,4.30951806640625,-0.2372874766588211,-0.28921908140182495,0.5527386665344238
1687353388258630400,4.32963037109375,-0.15632744133472443,-0.3296990990638733,0.4792354702949524
1687353388278743000,4.349742919921875,-0.27350643277168274,-0.577905535697937,0.5250418186187744
1687353388298855700,4.369855712890625,-0.4077296555042267,-0.8005456328392029,0.740225076675415
1687353388318968000,4.389968017578125,-0.4460791349411011,-0.8783098459243774,0.9436904191970825
1687353388339080700,4.410080810546875,-0.40879490971565247,-0.7824361324310303,1.0065410137176514
1687353388359193300,4.430193359375,-0.3704454302787781,-0.8293077349662781,1.0150630474090576
1687353388379305700,4.4503056640625,-0.41305598616600037,-1.2181289196014404,1.124785304069519
1687353388399418400,4.47041845703125,-0.5462139248847961,-1.8221334218978882,1.3442295789718628
1687353388419530800,4.49053076171875,-0.8402267098426819,-2.8351991176605225,1.779922366142273
1687353388439643400,4.510643310546875,-1.2162647247314453,-4.574774742126465,2.6236112117767334
1687353388459756000,4.530756103515625,-1.4442311525344849,-6.688257694244385,3.638807535171509
1687353388479868400,4.550868408203125,-1.4452964067459106,-8.810262680053711,4.496344566345215
1687353388499981000,4.57098095703125,-1.2194606065750122,-9.72638988494873,4.622045993804932
1687353388520093700,4.59109375,0.16964323818683624,-6.4965105056762695,1.67552649974823
1687353388540206000,4.6112060546875,4.261321067810059,4.326568126678467,-6.73046875
1687353388560318700,4.631318603515625,8.950611114501953,16.742216110229492,-17.128507614135742
1687353388580431400,4.651431396484375,11.521092414855957,22.07066535949707,-24.393606185913086
1687353388600543700,4.671543701171875,12.893152236938477,19.475683212280273,-22.634855270385742
1687353388620659000,4.691658935546875,12.830301284790039,14.699040412902832,-9.505480766296387
1687353388640769800,4.711769775390625,7.783082485198975,5.139364242553711,5.706484317779541
1687353388660881000,4.731880859375,1.1763173341751099,-6.712759017944336,11.757182121276855
1687353388680992000,4.751991943359375,1.359542727470398,-7.817437171936035,8.833032608032227
1687353388701103000,4.77210302734375,1.2988226413726807,-0.6588655710220337,4.200201511383057
1687353388721214700,4.792214599609375,-1.1022815704345703,3.48181414604187,2.1367857456207275
1687353388741326300,4.812326416015625,-3.1539793014526367,0.22849905490875244,2.3104236125946045
1687353388761438200,4.832438232421875,-4.650674819946289,-5.641103744506836,3.766638994216919
1687353388781550600,4.852550537109375,-5.391033172607422,-9.578317642211914,5.868404388427734
1687353388801663000,4.8726630859375,-5.680784702301025,-11.150647163391113,8.152329444885254
1687353388821776000,4.89277587890625,-5.952426910400391,-11.726954460144043,9.531846046447754
1687353388841888800,4.912888671875,-5.934317588806152,-12.154125213623047,9.476451873779297
1687353388862002200,4.933002197265625,-5.132174015045166,-12.288349151611328,8.400535583496094
1687353388882115600,4.953115478515625,-3.08793306350708,-10.271804809570312,6.341381072998047
1687353388902229000,4.97322900390625,0.6277065873146057,-4.494879722595215,2.1133499145507812
1687353388922343000,4.993343017578125,6.284256458282471,3.8855490684509277,-4.963196277618408
1687353388942456600,5.01345654296875,11.598856925964355,9.313067436218262,-12.982501029968262
1687353388962570200,5.0335703125,15.067355155944824,12.944551467895508,-20.15172576904297
1687353388982683400,5.053683349609375,16.711057662963867,14.713953971862793,-23.50411033630371
1687353389002796000,5.073796142578125,17.031702041625977,18.865285873413086,-17.042221069335938
1687353389022908400,5.093908447265625,14.544310569763184,17.88950538635254,-3.0563745498657227
1687353389043021000,5.11402099609375,7.450720310211182,3.448791027069092,10.818684577941895
1687353389063133700,5.1341337890625,2.5110926628112793,-8.924245834350586,13.825923919677734
1687353389083246000,5.15424609375,4.3603901863098145,-6.919419765472412,9.800292015075684
1687353389103358700,5.174358642578125,4.817388534545898,0.6940192580223083,5.625524044036865
1687353389123471400,5.194471435546875,3.171556234359741,3.3710267543792725,3.9722349643707275
1687353389143583700,5.214583740234375,1.3414332866668701,-0.3914843797683716,3.945603370666504
1687353389163696400,5.2346962890625,0.7960182428359985,-4.450139045715332,3.4417335987091064
1687353389183809000,5.25480908203125,0.8215845823287964,-5.418463706970215,2.208158254623413
1687353389203921400,5.27492138671875,0.6394245028495789,-3.7236289978027344,0.761530339717865
1687353389224034000,5.295033935546875,0.10679268091917038,-1.9297250509262085,-0.47843652963638306
1687353389244146400,5.315146484375,-0.39068543910980225,-1.5366427898406982,-0.9056072235107422
1687353389264259000,5.335259033203125,-0.9105340838432312,-2.0905799865722656,-0.9109335541725159
1687353389284371500,5.355371337890625,-1.3238563537597656,-2.5720789432525635,-0.9567399024963379
1687353389304483800,5.37548388671875,-1.3792500495910645,-2.6807360649108887,-1.1186599731445312
1687353389324596500,5.395596435546875,-1.0948246717453003,-2.4687485694885254,-1.1708579063415527
1687353389344708900,5.415708984375,-0.7997466921806335,-2.3995063304901123,-1.065396785736084
1687353389364821500,5.435821533203125,-0.7070687413215637,-2.47514009475708,-0.943956732749939
1687353389384934000,5.455933837890625,-0.6026729345321655,-2.445312738418579,-0.6659229397773743
1687353389405046500,5.476046630859375,-0.3885549008846283,-2.2013673782348633,-0.359127014875412
1687353389425159000,5.496158935546875,-0.09560741484165192,-1.574992299079895,-0.2930806577205658
1687353389445271600,5.516271484375,0.20266640186309814,-0.9315730333328247,-0.3623228073120117
1687353389465384000,5.536384033203125,0.3549990952014923,-0.49694550037384033,-0.42304283380508423
1687353389485496600,5.55649658203125,0.36671701073646545,-0.3680485785007477,-0.41345545649528503
1687353389505609000,5.57660888671875,0.30599698424339294,-0.3584612011909485,-0.3399522602558136
1687353389525721300,5.596721435546875,0.26338642835617065,-0.3254380524158478,-0.20679430663585663
1687353389545834000,5.616833984375,0.2474074810743332,-0.16564849019050598,-0.05659212917089462
1687353389565946400,5.6369462890625,0.2090579867362976,0.05592634156346321,0.08189214020967484
1687353389586059000,5.65705908203125,0.14514216780662537,0.1368863731622696,0.09574057161808014
1687353389606171400,5.67717138671875,0.0588558167219162,0.1837579756975174,0.06271740049123764
1687353389626284000,5.697283935546875,-0.009321057237684727,0.2263685166835785,0.05632581561803818
1687353389646396400,5.717396484375,-0.018908429890871048,0.27110961079597473,0.048868969082832336
1687353389666509000,5.737509033203125,0.02157158963382244,0.3094590902328491,0.06271740049123764
1687353389686621400,5.757621337890625,0.06418213248252869,0.2593916952610016,0.08508793264627457
1687353389706733800,5.77773388671875,0.0727042406797409,0.22423799335956573,0.10319741815328598
1687353389726846500,5.797846435546875,0.07057371735572815,0.18588849902153015,0.09574057161808014
1687353389746958800,5.817958740234375,0.08016108721494675,0.12836426496505737,0.04354264959692955
1687353389767071500,5.838071533203125,0.11211899667978287,0.08149266988039017,0.0318247526884079
1687353389787183900,5.858183837890625,0.14407691359519958,0.022903168573975563,0.05206476151943207
1687353389807296500,5.878296630859375,0.17283903062343597,-0.14753901958465576,0.11917637288570404
1687353389827409000,5.898408935546875,0.19840535521507263,-0.4372907280921936,0.2949448823928833
1687353389847521500,5.918521484375,0.22716747224330902,-0.7632613778114319,0.5005407333374023
1687353389867634000,5.938634033203125,0.1664474457502365,-1.3342427015304565,0.7487471699714661
1687353389887746600,5.95874658203125,-0.280963271856308,-2.3835272789001465,1.2622042894363403
1687353389907859000,5.97885888671875,-1.2524837255477905,-3.607515335083008,2.0185413360595703
1687353389927971300,5.998971435546875,-2.3656842708587646,-4.765456676483154,2.765291213989258
1687353389948084000,6.019083984375,-3.3446614742279053,-6.486922740936279,3.622828483581543
1687353389968196400,6.0391962890625,-4.530300140380859,-8.890157699584961,4.812727928161621
1687353389988309000,6.05930908203125,-5.289833068847656,-10.191909790039062,5.650025367736816
1687353390008421400,6.07942138671875,-5.347357273101807,-10.615884780883789,5.843903064727783
1687353390028534000,6.099533935546875,-4.571845054626465,-10.017206192016602,5.3709259033203125
1687353390048646400,6.119646484375,-3.534278392791748,-8.082688331604004,4.331228733062744
1687353390068759000,6.139759033203125,-2.3912506103515625,-5.7976975440979,2.7375943660736084
1687353390088871400,6.159871337890625,-0.337422251701355,-3.427485704421997,0.5207807421684265
1687353390108984000,6.179984130859375,3.2152318954467773,-0.058056868612766266,-2.956239700317383
1687353390129096400,6.200096435546875,8.453133583068848,4.532164096832275,-7.9395432472229
1687353390149208800,6.220208740234375,14.358955383300781,9.767934799194336,-14.134051322937012
1687353390169321500,6.240321533203125,19.0493106842041,14.793848991394043,-20.11124610900879
1687353390189433900,6.260433837890625,20.945480346679688,19.519357681274414,-21.769861221313477
1687353390209546500,6.28054638671875,19.819496154785156,23.11675453186035,-12.91325855255127
1687353390229659000,6.300658935546875,13.491829872131348,14.969616889953613,3.4907357692718506
1687353390249771500,6.320771484375,3.2599730491638184,-3.9718353748321533,15.285334587097168
1687353390269884000,6.3408837890625,0.8599340915679932,-11.915506362915039,14.493844032287598
1687353390289996500,6.36099658203125,3.183274030685425,-4.057056427001953,8.407992362976074
1687353390310109000,6.38110888671875,1.90495765209198,1.3001543283462524,3.170091390609741
1687353390330221600,6.4012216796875,-0.4822981059551239,-0.8804404139518738,1.3634042739868164
1687353390350334000,6.421333984375,-2.010951519012451,-5.320459365844727,1.7777918577194214
1687353390370446300,6.4414462890625,-2.518016815185547,-7.580948829650879,2.843055486679077
1687353390390559000,6.46155908203125,-2.557431697845459,-7.631016254425049,4.40260124206543
1687353390410671400,6.48167138671875,-2.983537197113037,-7.8035888671875,6.111284255981445
1687353390430784000,6.501783935546875,-3.3936636447906494,-9.066991806030273,6.643916130065918
1687353390450896400,6.521896484375,-3.1198909282684326,-10.326132774353027,6.178395748138428
1687353390471009000,6.542009033203125,-2.4839284420013428,-10.706432342529297,4.852142810821533
1687353390491121400,6.562121337890625,-1.213068962097168,-8.896549224853516,2.684331178665161
1687353390511234000,6.582234130859375,0.592552900314331,-5.515402317047119,-0.3538006842136383
1687353390531346400,6.602346435546875,2.8168234825134277,-2.023468255996704,-4.002328872680664
1687353390551459000,6.622458984375,5.3383026123046875,1.1755183935165405,-7.894802093505859
1687353390571571500,6.642571533203125,8.14207649230957,4.49807596206665,-12.08128833770752
1687353390591683800,6.662683837890625,11.582878112792969,8.415050506591797,-16.209184646606445
1687353390611796500,6.68279638671875,15.805583000183105,14.021533012390137,-18.35569190979004
1687353390631908900,6.702908935546875,18.194969177246094,21.956682205200195,-14.438716888427734
1687353390652021500,6.723021484375,15.61703109741211,19.345720291137695,-1.9463698863983154
1687353390672134000,6.7431337890625,6.85523796081543,-0.6439518928527832,13.429645538330078
1687353390692246500,6.76324658203125,5.7345805168151855,-10.742650985717773,12.110849380493164
1687353390712359000,6.78335888671875,7.887478351593018,-3.175018310546875,5.145090103149414
1687353390732471600,6.803471435546875,5.8389763832092285,1.8274598121643066,3.507780075073242
1687353390752584000,6.823583984375,3.3771519660949707,0.32330751419067383,3.7740960121154785
1687353390772696600,6.843696533203125,1.9230672121047974,-2.034121036529541,2.902710199356079
1687353390792809000,6.86380908203125,0.24953800439834595,-3.2676961421966553,1.69044029712677
1687353390812921300,6.88392138671875,-1.23011314868927,-1.9627482891082764,0.102132149040699
1687353390833034000,6.904033935546875,-2.0130820274353027,0.6130592226982117,-1.1410305500030518
1687353390853146400,6.924146484375,-2.423208475112915,1.2671310901641846,-1.2763190269470215
1687353390873259000,6.944259033203125,-2.5393221378326416,0.1933453530073166,-0.8107987642288208
1687353390893371400,6.964371337890625,-2.3305306434631348,-1.4205290079116821,-0.4677838981151581
1687353390913484000,6.984484130859375,-1.627456545829773,-2.1257336139678955,-0.5562008023262024
1687353390933596400,7.004596435546875,-0.7613971829414368,-2.1214725971221924,-0.6755102872848511
1687353390953709000,7.024708984375,-0.3352917432785034,-2.0916452407836914,-0.45500072836875916
1687353390973821400,7.044821533203125,-0.3512706756591797,-2.5433168411254883,-0.1045289933681488
1687353390993933800,7.064933837890625,-0.601607620716095,-3.020555019378662,-0.0672447681427002
1687353391014046500,7.08504638671875,-0.6026729345321655,-2.599776029586792,-0.39854174852371216
1687353391034158800,7.105158935546875,-0.3736412227153778,-1.6239944696426392,-0.6850976943969727
1687353391054271500,7.125271484375,-0.15526217222213745,-0.7089329361915588,-0.6297039985656738
1687353391074384000,7.1453837890625,-0.023169483989477158,-0.2348906397819519,-0.3825628161430359
1687353391094496500,7.16549658203125,0.04287686198949814,-0.21465063095092773,-0.15246586501598358
1687353391114609000,7.18560888671875,0.11211899667978287,-0.4181159734725952,0.08402267098426819
1687353391134721500,7.205721435546875,0.18349166214466095,-0.5267728567123413,0.23635536432266235
1687353391154834000,7.225833984375,0.2090579867362976,-0.49268442392349243,0.20439745485782623
1687353391174946600,7.245946533203125,0.15366427600383759,-0.03249054029583931,0.13622058928012848
1687353391195059000,7.266058837890625,0.09507478028535843,0.46285703778266907,0.0882837250828743
1687353391215171300,7.28617138671875,0.03328948840498924,0.5981455445289612,-0.01504684891551733
1687353391235284000,7.306283935546875,-0.019973693415522575,0.5544697046279907,-0.09174583107233047
1687353391255396400,7.326396240234375,-0.011451584286987782,0.47777074575424194,-0.10879004746675491
1687353391275508700,7.3465087890625,0.011984216049313545,0.3573959469795227,-0.0810931921005249
1687353391295621000,7.36662109375,0.04607265070080757,0.31691592931747437,-0.0810931921005249
1687353391315733800,7.386733642578125,0.07696529477834702,0.3478085696697235,-0.1609879732131958
1687353391335846100,7.40684619140625,0.1153147891163826,0.3392864763736725,-0.23449115455150604
1687353391355958500,7.42695849609375,0.10466215014457703,0.21571588516235352,-0.2696448564529419
1687353391376071000,7.44707080078125,0.0492684431374073,0.11132004857063293,-0.20999009907245636
1687353391396183600,7.46718359375,0.040746334940195084,0.07829687744379044,-0.14394375681877136
1687353391416296000,7.4872958984375,0.05566002428531647,-0.004793686326593161,-0.11198583990335464
1687353391436408300,7.507408203125,0.06737792491912842,-0.19654114544391632,-0.06617950648069382
1687353391456520700,7.527520751953125,0.09827057272195816,-0.4138549268245697,0.017976323142647743
1687353391476633300,7.54763330078125,0.12170637398958206,-0.5811012983322144,0.13195952773094177
1687353391496745700,7.567745849609375,0.11105373501777649,-0.4841623306274414,0.21398483216762543
1687353391516858000,7.587858154296875,0.12277163565158844,-0.3669833242893219,0.19054903090000153
1687353391536970500,7.607970458984375,0.08761793375015259,-0.4894886314868927,0.20439745485782623
1687353391557083100,7.628083251953125,0.001331579522229731,-0.8740488290786743,0.3854922652244568
1687353391577195500,7.648195556640625,-0.13502216339111328,-1.3502216339111328,0.7125282287597656
1687353391597308000,7.668307861328125,-0.563258171081543,-1.9435734748840332,1.1578084230422974
1687353391617420300,7.688420166015625,-1.4452964067459106,-3.0738182067871094,1.7223981618881226
1687353391637533000,7.708532958984375,-2.428534746170044,-5.783848762512207,2.4297332763671875
1687353391657645300,7.728645263671875,-3.127347707748413,-9.587904930114746,3.295792579650879
1687353391677757700,7.7487578125,-3.2381350994110107,-11.928289413452148,4.15439510345459
1687353391697870000,7.7688701171875,-3.4181647300720215,-12.016706466674805,4.830837249755859
1687353391717982700,7.788982666015625,-3.792072296142578,-11.085665702819824,5.040694236755371
1687353391738095000,7.80909521484375,-3.762244939804077,-10.560491561889648,4.903275489807129
1687353391758207500,7.82920751953125,-3.50871205329895,-10.384722709655762,5.012997627258301
1687353391778320000,7.84931982421875,-2.8482487201690674,-8.88270092010498,4.5027360916137695
1687353391798432500,7.8694326171875,-0.42264336347579956,-5.115928649902344,2.0387814044952393
1687353391818545000,7.889544921875,4.884500026702881,1.0945583581924438,-2.8273427486419678
1687353391838657300,7.9096572265625,12.544811248779297,8.524772644042969,-9.805885314941406
1687353391858769700,7.929769775390625,18.9012393951416,16.27243423461914,-17.189228057861328
1687353391878882300,7.94988232421875,21.064788818359375,23.808109283447266,-20.96026039123535
1687353391898994700,7.96999462890625,19.60750961303711,28.026554107666016,-14.846712112426758
1687353391919107000,7.990107177734375,14.351497650146484,22.27093505859375,1.2377032041549683
1687353391939219500,8.010219482421874,6.542050361633301,2.1843230724334717,14.091174125671387
1687353391959332000,8.03033203125,4.888761043548584,-9.065926551818848,11.990474700927734
1687353391979444500,8.050444580078125,6.986265182495117,-3.299654245376587,6.212484359741211
1687353391999556900,8.070556884765624,5.515136241912842,1.9872493743896484,3.3927314281463623
1687353392019669200,8.090669189453125,3.22694993019104,0.9773793816566467,3.260638952255249
1687353392039782000,8.110781982421875,1.4181321859359741,-1.557948112487793,3.0348029136657715
1687353392059894300,8.130894287109374,0.016245270147919655,-3.0386645793914795,2.2667479515075684
1687353392080006700,8.151006591796875,-1.0170605182647705,-2.605102300643921,1.6595475673675537
1687353392100119000,8.171119140625,-1.5454312562942505,-0.6056023836135864,1.227050542831421
1687353392120231700,8.191231689453126,-1.7947028875350952,0.9454214572906494,1.1578084230422974
1687353392140344000,8.211343994140625,-2.442383289337158,0.44581282138824463,1.3740569353103638
1687353392160456400,8.23145654296875,-3.2104382514953613,-1.570731282234192,1.6105455160140991
1687353392180568800,8.25156884765625,-3.8709018230438232,-4.5023369789123535,1.645699143409729
1687353392200681500,8.271681396484375,-4.114847183227539,-7.283740043640137,1.486974835395813
1687353392220793900,8.2917939453125,-3.906055450439453,-9.906418800354004,1.8204023838043213
1687353392240906200,8.31190625,-3.4980595111846924,-12.557860374450684,2.903775453567505
1687353392261018600,8.3320185546875,-2.9750149250030518,-13.967204093933105,4.228963375091553
1687353392281131300,8.35213134765625,-2.0152125358581543,-14.573339462280273,5.284639835357666
1687353392301243600,8.37224365234375,-0.7496792674064636,-13.679582595825195,5.760812759399414
1687353392321356000,8.39235595703125,0.793887734413147,-10.875808715820312,4.583696365356445
1687353392341468400,8.412468505859374,3.767038583755493,-5.317263603210449,0.23102904856204987
1687353392361581000,8.4325810546875,9.331975936889648,4.2093892097473145,-6.674009799957275
1687353392381693400,8.452693359375,15.725687980651855,12.888092041015625,-13.63657283782959
1687353392401805800,8.472805908203124,19.656511306762695,20.5697078704834,-17.46299934387207
1687353392421918200,8.492918212890626,20.225360870361328,25.60840606689453,-11.383540153503418
1687353392442030800,8.51303076171875,15.607443809509277,19.221084594726562,3.1051104068756104
1687353392462143200,8.533143310546874,7.291996002197266,1.3331774473190308,12.572108268737793
1687353392482255600,8.553255615234375,6.352433204650879,-7.52555513381958,10.55982494354248
1687353392502368000,8.573367919921875,7.9726996421813965,-2.7361297607421875,5.473191261291504
1687353392522480600,8.593480712890624,6.229928016662598,1.2937626838684082,3.914710760116577
1687353392542593000,8.613593017578125,3.400587797164917,1.9307903051376343,3.741072654724121
1687353392562705400,8.633705322265625,1.053812026977539,1.9403777122497559,2.7759439945220947
1687353392582817800,8.65381787109375,-1.2311784029006958,0.9273120164871216,1.8204023838043213
1687353392602930400,8.673930419921875,-2.681002378463745,0.12942953407764435,0.9660609364509583
1687353392623042800,8.694042724609375,-2.2559621334075928,0.35952648520469666,0.03928159549832344
1687353392643155200,8.7141552734375,-1.3121384382247925,0.7036066055297852,0.12450268864631653
1687353392663267600,8.734267578125,-0.7134603261947632,-0.01651158556342125,0.7114629745483398
1687353392683380200,8.754380126953125,-0.2745717167854309,-0.9997498989105225,0.9937578439712524
1687353392703492600,8.77449267578125,0.015180006623268127,-1.5590133666992188,0.5207807421684265
1687353392723605000,8.79460498046875,-0.024234747514128685,-1.8221334218978882,-0.15992270410060883
1687353392743717600,8.814717529296875,-0.439687579870224,-2.3100242614746094,-0.5274386405944824
1687353392763830000,8.834830078125,-0.9169256687164307,-2.7318685054779053,-0.7106640338897705
1687353392783942700,8.854942626953125,-1.1044120788574219,-2.6530392169952393,-0.9428914785385132
1687353392804055000,8.875054931640625,-1.103346824645996,-2.198171615600586,-1.1058768033981323
1687353392824167400,8.89516748046875,-1.078845739364624,-1.834916591644287,-1.1644662618637085
1687353392844280000,8.915280029296875,-1.0383657217025757,-1.7816534042358398,-1.0760494470596313
1687353392864392400,8.935392333984375,-0.8125298619270325,-1.4567480087280273,-0.7692534923553467
1687353392884505000,8.955505126953126,-0.4492749273777008,-1.282044768333435,-0.5380913019180298
1687353392904617500,8.975617431640625,-0.1861548274755478,-1.4567480087280273,-0.4326302111148834
1687353392924730000,8.995730224609375,0.05033370852470398,-1.5962976217269897,-0.32397329807281494
1687353392944842500,9.015842529296876,0.22290641069412231,-1.709215521812439,-0.2600574791431427
1687353392964955100,9.035955078125,0.24527695775032043,-1.7518260478973389,-0.22383852303028107
1687353392985067500,9.056067626953125,0.1664474457502365,-1.265000581741333,-0.14607428014278412
1687353393005180200,9.07618017578125,-0.002929474925622344,-0.6514087319374084,-0.10985531657934189
1687353393025292500,9.09629248046875,-0.15845796465873718,-0.15819165110588074,-0.10133320093154907
1687353393045405000,9.116405029296875,-0.2181127369403839,-0.04846949502825737,-0.08855003863573074
1687353393065517600,9.136517578125,-0.1478053331375122,-0.059122130274772644,-0.0022636852227151394
1687353393085630000,9.1566298828125,0.06737792491912842,-0.07936213910579681,0.08615319430828094
1687353393105742600,9.17674267578125,0.18455693125724792,-0.23382537066936493,0.14154690504074097
1687353393125855000,9.19685498046875,0.1579253375530243,-0.3914843797683716,0.12024163454771042
1687353393145967600,9.216967529296875,0.08016108721494675,-0.5523391962051392,0.0009321057004854083
1687353393166080000,9.237080078125,-0.04127896577119827,-0.7281076908111572,-0.21638168394565582
1687353393186192600,9.257192626953126,-0.09773793816566467,-0.9145288467407227,-0.3538006842136383
1687353393206305000,9.277304931640625,-0.11478215456008911,-0.8644614219665527,-0.25792697072029114
1687353393226417700,9.297417724609375,-0.08495477586984634,-0.8346340656280518,-0.16737954318523407
1687353393246530000,9.317530029296876,0.01837579719722271,-0.7973498106002808,-0.17270587384700775
1687353393266642700,9.337642578125,0.09933583438396454,-0.699345588684082,-0.08961530029773712
1687353393286755300,9.35775537109375,0.13981585204601288,-0.7046719193458557,0.011584741994738579
1687353393306867700,9.37786767578125,0.2047969400882721,-0.6716487407684326,-0.02889527566730976
1687353393326980400,9.39798046875,0.23142851889133453,-0.6322339773178101,-0.08855003863573074
1687353393347092700,9.4180927734375,0.18029586970806122,-0.6418213248252869,0.03608580678701401
1687353393367205400,9.438205322265626,0.13662005960941315,-0.6578003168106079,0.19374482333660126
1687353393387318000,9.458318115234375,0.10359688848257065,-0.7323687672615051,0.23742063343524933
1687353393407430400,9.478430419921875,0.05033370852470398,-0.8825709223747253,0.2342248409986496
1687353393427543000,9.49854296875,0.015180006623268127,-1.0647310018539429,0.1873532384634018
1687353393447655700,9.51865576171875,0.0141147430986166,-1.2213248014450073,0.2246374636888504
1687353393467768000,9.53876806640625,0.03435475379228592,-1.1819100379943848,0.3514038324356079
1687353393487880700,9.558880615234376,0.0141147430986166,-1.0583394765853882,0.42490702867507935
1687353393507993300,9.578993408203125,-0.04767054691910744,-1.2980237007141113,0.5825660824775696
1687353393528105700,9.599105712890625,-0.021038956940174103,-1.6953670978546143,0.8616651296615601
1687353393548218400,9.61921826171875,-0.0636495053768158,-1.8913755416870117,1.0065410137176514
1687353393568331000,9.6393310546875,-0.2575274705886841,-2.23225998878479,1.0832399129867554
1687353393588443400,9.659443359375,-0.5675191879272461,-2.856504440307617,1.2920316457748413
1687353393608556000,9.67955615234375,-0.9797762632369995,-3.879157543182373,1.742638111114502
1687353393628668700,9.699668701171875,-1.8351829051971436,-6.092775344848633,2.8174891471862793
1687353393648781000,9.719781005859375,-2.9569056034088135,-10.1397123336792,4.595414161682129
1687353393668893700,9.739893798828126,-3.9646449089050293,-14.300631523132324,6.308358192443848
1687353393689006300,9.76000634765625,-4.361988067626953,-15.898527145385742,7.193592071533203
1687353393709118700,9.78011865234375,-4.53775691986084,-14.230324745178223,7.017823696136475
1687353393729231400,9.8002314453125,-4.581432819366455,-11.085665702819824,5.673460960388184
1687353393749344000,9.820343994140625,-3.8538575172424316,-8.156190872192383,3.7730307579040527
1687353393769456400,9.840456298828125,-1.4293174743652344,-4.4320292472839355,1.4124064445495605
1687353393789569000,9.860569091796876,4.302865982055664,1.3608742952346802,-2.394845724105835
1687353393809681700,9.880681640625,12.326432228088379,7.106906414031982,-7.4079766273498535
1687353393829794000,9.9007939453125,20.245601654052734,12.121102333068848,-12.861061096191406
1687353393849906400,9.920906494140626,25.272581100463867,17.70201873779297,-16.89628028869629
1687353393870019000,9.94101904296875,24.158315658569336,23.268020629882812,-15.21103286743164
1687353393890131500,9.96113134765625,16.67483901977539,28.35359001159668,-4.7288384437561035
1687353393910244000,9.981244140625,8.044072151184082,20.976638793945312,4.38981819152832
1687353393930356500,10.0013564453125,1.044224739074707,0.1368863731622696,9.807748794555664
1687353393950469000,10.02146923828125,2.72627592086792,-9.59855842590332,8.998148918151855
1687353393970581500,10.04158154296875,3.6647732257843018,-5.248021125793457,6.921949863433838
1687353393990694100,10.061694091796875,0.923849880695343,-2.123603105545044,5.573326110839844
1687353394010806500,10.081806640625,-1.584846019744873,-4.875179290771484,4.380230903625488
1687353394030919200,10.101919189453126,-2.652240037918091,-9.619863510131836,3.507780075073242
1687353394051031600,10.122031494140625,-2.9728844165802,-13.461203575134277,4.07450008392334
1687353394071144000,10.14214404296875,-3.3627710342407227,-15.424485206604004,6.586391925811768
1687353394091256600,10.162256591796876,-4.671979904174805,-15.880417823791504,9.247420310974121
1687353394111369000,10.182368896484375,-6.011016368865967,-15.923027992248535,9.36779499053955
1687353394131481600,10.202481689453125,-6.098368167877197,-15.5682954788208,7.985083103179932
1687353394151594000,10.222593994140626,-5.207807540893555,-13.240694046020508,5.974930763244629
1687353394171706600,10.24270654296875,-3.55877947807312,-7.689605712890625,3.294727325439453
1687353394191819000,10.262819091796874,0.6117276549339294,-0.1038632020354271,-0.3878891170024872
1687353394211931600,10.282931640625,7.5061140060424805,4.721781253814697,-5.741904258728027
1687353394232044000,10.3030439453125,14.675337791442871,8.138081550598145,-12.479696273803711
1687353394252156400,10.323156494140624,21.297016143798828,13.557077407836914,-20.35519027709961
1687353394272269000,10.34326904296875,25.45047950744629,18.619211196899414,-24.95180320739746
1687353394292381400,10.36338134765625,24.21796989440918,26.301891326904297,-17.52691650390625
1687353394312496000,10.38349609375,17.563268661499023,21.984378814697266,1.113067388534546
1687353394332606500,10.4036064453125,7.497591972351074,0.8836361765861511,16.629697799682617
1687353394352717000,10.423717041015625,6.972416877746582,-11.167691230773926,14.00808334350586
1687353394372827600,10.44382763671875,8.766321182250977,-4.829372882843018,8.39627456665039
1687353394392938500,10.4639384765625,6.321540832519531,-0.6183855533599854,6.967756271362305
1687353394413049900,10.4840498046875,4.318845272064209,-1.9105503559112549,6.739789962768555
1687353394433161200,10.5041611328125,3.4922006130218506,-3.4445300102233887,5.337903022766113
1687353394453273000,10.524273193359376,2.7337327003479004,-4.1593217849731445,3.666504383087158
1687353394473385200,10.54438525390625,1.5544859170913696,-3.840808153152466,2.124002456665039
1687353394493497600,10.56449755859375,0.37204334139823914,-2.5763401985168457,0.5623260736465454
1687353394513610500,10.584610595703126,-0.15632744133472443,-1.1701921224594116,-0.5008070468902588
1687353394533726200,10.604726318359376,-0.5387570858001709,-0.4596612751483917,-1.0398304462432861
1687353394553842000,10.624842041015626,-0.7006771564483643,-0.6194508075714111,-1.1761841773986816
1687353394573956400,10.644956298828125,-0.6239781975746155,-1.1989542245864868,-1.2720578908920288
1687353394594073300,10.6650732421875,-0.3640538454055786,-1.7102807760238647,-1.4563485383987427
1687353394614181000,10.68518115234375,-0.13502216339111328,-1.8370471000671387,-1.7610139846801758
1687353394634289400,10.705289306640625,-0.05299686640501022,-1.8157418966293335,-2.0390477180480957
1687353394654397700,10.725397705078125,-0.1478053331375122,-1.6783229112625122,-2.172205686569214
1687353394674506500,10.745506591796875,-0.2745717167854309,-1.3928321599960327,-1.935717225074768
1687353394694616000,10.765615966796876,-0.24900537729263306,-1.059404730796814,-1.5618096590042114
1687353394714726100,10.78572607421875,-0.20852535963058472,-0.5257076025009155,-1.2379695177078247
1687353394734837200,10.805837158203126,-0.06897582113742828,-0.28815382719039917,-0.9269125461578369
1687353394754948900,10.825948974609375,0.06205160543322563,-0.3158506751060486,-0.5732449889183044
1687353394775061200,10.846061279296874,0.15472954511642456,-0.5139896869659424,-0.23555642366409302
1687353394795174700,10.866174560546876,0.24314641952514648,-0.7195855975151062,-0.08961530029773712
1687353394815288600,10.88628857421875,0.30493173003196716,-0.6407560706138611,-0.09813741594552994
1687353394835403300,10.9064033203125,0.2751043438911438,-0.4245075583457947,-0.0033289489801973104
1687353394855518200,10.926518310546875,0.13662005960941315,-0.3211769759654999,0.04354264959692955
1687353394875633700,10.946633544921875,-0.00612526573240757,-0.16351796686649323,-0.005459476262331009
1687353394895749400,10.966749267578125,-0.10839057713747025,-0.04527370631694794,-0.07363634556531906
1687353394915865300,10.986865234375,-0.23622220754623413,0.0015978955198079348,-0.15566164255142212
1687353394935980800,11.006980712890625,-0.35766226053237915,0.10918952524662018,-0.15885743498802185
1687353394956093200,11.02709326171875,-0.40453386306762695,0.1368863731622696,-0.10559425503015518
1687353394976205800,11.047205810546876,-0.38109806180000305,0.13475584983825684,-0.06831002980470657
1687353394996318200,11.067318115234375,-0.337422251701355,0.10705899447202682,0.028628960251808167
1687353395016430600,11.0874306640625,-0.2884201407432556,0.0037284228019416332,0.09467530250549316
1687353395036543000,11.10754296875,-0.20639483630657196,-0.06764423847198486,0.007323687430471182
1687353395056655600,11.127655517578125,-0.1201084777712822,-0.053795814514160156,-0.12583427131175995
1687353395076768000,11.14776806640625,-0.060453712940216064,-0.05592634156346321,-0.23449115455150604
1687353395096880400,11.16788037109375,-0.019973693415522575,-0.010120004415512085,-0.30373328924179077
1687353395116992800,11.18799267578125,-0.011451584286987782,-0.01438105944544077,-0.23981747031211853
1687353395137105400,11.20810546875,-0.03488738462328911,-0.06977476924657822,-0.13435637950897217
1687353395157217800,11.2282177734375,-0.03275685757398605,-0.08788424730300903,-0.14394375681877136
1687353395177330200,11.248330078125,-0.0018642114009708166,-0.04846949502825737,-0.2408827394247055
1687353395197442600,11.268442626953124,0.020506324246525764,-0.08149266988039017,-0.2643185555934906
1687353395217555200,11.28855517578125,0.0354200154542923,-0.2593916952610016,-0.14820480346679688
1687353395237667600,11.30866748046875,0.048203181475400925,-0.5075981020927429,-0.0022636852227151394
1687353395257780000,11.328780029296874,0.02157158963382244,-0.7281076908111572,0.12876373529434204
1687353395277892400,11.348892333984375,0.004527370445430279,-0.9038761854171753,0.2672480046749115
1687353395298005000,11.3690048828125,0.0002663159102667123,-1.1648657321929932,0.3705785870552063
1687353395318117400,11.389117431640624,-0.04660528525710106,-1.550491213798523,0.4270375669002533
1687353395338229800,11.409229736328125,-0.09028109163045883,-1.8455692529678345,0.4781702160835266
1687353395358342100,11.429342041015625,0.08442214131355286,-2.092710494995117,0.564456582069397
1687353395378454800,11.449454833984374,0.2047969400882721,-2.9481170177459717,0.9330378174781799
1687353395398567200,11.469567138671875,-0.1765674501657486,-4.51085901260376,1.7213329076766968
1687353395418679600,11.489679443359375,-0.9307740926742554,-6.414484977722168,2.605501651763916
1687353395438792000,11.5097919921875,-1.5720628499984741,-8.324502944946289,3.369295835494995
1687353395458904600,11.529904541015625,-1.9598188400268555,-10.256891250610352,4.12456750869751
1687353395479017000,11.550016845703125,-2.2431788444519043,-12.0454683303833,4.759464740753174
1687353395499129300,11.57012939453125,-2.541452646255493,-12.680365562438965,5.238833427429199
1687353395519241700,11.59024169921875,-2.705503225326538,-11.971965789794922,5.043889999389648
1687353395539354400,11.610354248046875,-2.592585325241089,-9.882983207702637,3.7985970973968506
1687353395559466800,11.630466796875,-2.11641263961792,-6.475204944610596,1.6126760244369507
1687353395579579100,11.6505791015625,-0.07430213689804077,-1.771000862121582,-1.5223948955535889
1687353395599691500,11.67069140625,4.559594631195068,4.665322303771973,-6.19464111328125
1687353395619804200,11.69080419921875,11.49020004272461,11.256108283996582,-12.15692138671875
1687353395639916500,11.71091650390625,19.230405807495117,18.269804000854492,-18.421737670898438
1687353395660029000,11.73102880859375,23.84512710571289,24.650733947753906,-22.145898818969727
1687353395680141300,11.751141357421876,21.396085739135742,29.69582176208496,-15.934347152709961
1687353395700253700,11.771253662109375,11.883282661437988,23.331937789916992,0.88297039270401
1687353395720366000,11.791365966796874,-1.0511488914489746,-6.070405006408691,14.256290435791016
1687353395740478500,11.811478515625,-0.911599338054657,-18.13344955444336,11.729484558105469
1687353395760590800,11.8315908203125,2.7518422603607178,-7.411571979522705,6.030324459075928
1687353395780703200,11.851703125,-0.2000032514333725,3.0099024772644043,3.1594388484954834
1687353395800815600,11.871815673828126,-2.8269433975219727,2.191779851913452,2.644916534423828
1687353395820928000,11.891927978515625,-3.008038282394409,-4.049599647521973,3.0550429821014404
1687353395841040600,11.91204052734375,-2.9803414344787598,-8.770848274230957,4.71791934967041
1687353395861153000,11.932153076171875,-3.504451036453247,-10.140777587890625,6.960299491882324
1687353395881265400,11.952265380859375,-4.243743896484375,-10.332524299621582,8.720114707946777
1687353395901377800,11.972377685546874,-4.4898200035095215,-10.752238273620605,9.218658447265625
1687353395921490200,11.992490234375,-3.732417583465576,-11.122950553894043,8.805335998535156
1687353395941602600,12.0126025390625,-2.2517011165618896,-9.75941276550293,7.538737773895264
1687353395961715000,12.03271484375,-0.8689888119697571,-6.367613315582275,5.374122142791748
1687353395981827300,12.052827392578125,-0.08602003753185272,-2.781935930252075,2.808967113494873
1687353396001939700,12.072939697265625,0.07376950979232788,-1.7081502676010132,0.7263766527175903
1687353396022052000,12.093052001953126,-0.20213377475738525,-2.3536999225616455,-0.15246586501598358
1687353396042164500,12.11316455078125,-0.110521100461483,-1.9883146286010742,-0.5764408111572266
1687353396062276900,12.13327685546875,0.8066709041595459,-0.5491434335708618,-1.8078855276107788
1687353396082389200,12.15338916015625,2.6293370723724365,1.0572742223739624,-4.327234268188477
1687353396102501600,12.173501708984375,5.641902446746826,3.5489258766174316,-8.637290954589844
1687353396122614000,12.193614013671874,10.531462669372559,8.413985252380371,-16.011045455932617
1687353396142726400,12.213726318359376,16.329692840576172,14.716084480285645,-24.76218605041504
1687353396162838800,12.2338388671875,20.216838836669922,20.909526824951172,-28.90073585510254
1687353396182951200,12.253951171875,22.36760711669922,25.01931381225586,-17.630247116088867
1687353396203063600,12.2740634765625,16.34140968322754,12.500336647033691,9.430645942687988
1687353396223176000,12.294176025390625,2.541985273361206,-12.730433464050293,21.37438201904297
1687353396243288300,12.314288330078124,7.748993873596191,-11.302979469299316,8.14061164855957
1687353396263400700,12.334400634765625,10.37060832977295,0.8175898194313049,0.12663321197032928
1687353396283513300,12.354513427734375,4.576638698577881,1.2085416316986084,4.479300498962402
1687353396303625700,12.374625732421874,0.999483585357666,-3.0535781383514404,7.920102119445801
1687353396323738000,12.394738037109375,0.9302414655685425,-3.278348922729492,5.6883745193481445
1687353396343850500,12.4148505859375,1.165664792060852,-1.935051441192627,2.0174760818481445
1687353396363963000,12.434962890625,-0.41944757103919983,-0.41705071926116943,-0.7415566444396973
1687353396384075300,12.4550751953125,-1.6125428676605225,0.2743053734302521,-2.061418294906616
1687353396404187600,12.475187744140625,-1.5464965105056763,-0.211454838514328,-1.7929718494415283
1687353396424300000,12.495300048828126,-1.2088079452514648,-1.3033500909805298,-1.1847063302993774
1687353396444412400,12.515412353515625,-1.0756499767303467,-2.0500998497009277,-0.7213166356086731
1687353396464524800,12.53552490234375,-0.8327698707580566,-2.161952495574951,-0.6840324401855469
1687353396484637200,12.55563720703125,-0.6143907904624939,-1.8626134395599365,-1.0504831075668335
1687353396504749600,12.57574951171875,-0.6111950278282166,-1.1520826816558838,-1.6203991174697876
1687353396524862000,12.595862060546875,-0.8135951161384583,-0.8868319988250732,-2.0656793117523193
1687353396544974300,12.615974365234376,-0.8370308876037598,-1.0306426286697388,-1.9666098356246948
1687353396565086700,12.636086669921875,-0.46099284291267395,-1.1691268682479858,-1.2848410606384277
1687353396585199000,12.65619921875,0.060986343771219254,-1.5238596200942993,-0.6243776679039001
1687353396605311500,12.6763115234375,0.5211802124977112,-1.7188029289245605,-0.2515353858470917
1687353396625424000,12.696423828125,0.7757782340049744,-1.4375733137130737,0.09574057161808014
1687353396645536300,12.716536376953124,0.7736477255821228,-1.0775141716003418,0.3833617568016052
1687353396665648600,12.736648681640625,0.6000097393989563,-0.6876276731491089,0.4462123215198517
1687353396685761000,12.756760986328125,0.3826959729194641,-0.23382537066936493,0.3247722387313843
1687353396705873400,12.776873291015624,0.25912538170814514,0.11132004857063293,0.17989639937877655
1687353396725986000,12.796986083984375,0.2047969400882721,0.21997694671154022,0.10532794147729874
1687353396746098400,12.817098388671875,0.11957584321498871,0.13049480319023132,0.12450268864631653
1687353396766210800,12.8372109375,0.02583264373242855,-0.058056868612766266,0.14367742836475372
1687353396786323200,12.8573232421875,0.016245270147919655,-0.10599373281002045,0.04247738793492317
1687353396806435600,12.877435546875,0.04713791608810425,-0.01651158556342125,-0.08855003863573074
1687353396826548000,12.8975478515625,-0.016777902841567993,0.06018739566206932,-0.19720692932605743
1687353396846660400,12.917660400390625,-0.1573926955461502,0.18695376813411713,-0.27177539467811584
1687353396866772700,12.937772705078125,-0.18828535079956055,0.29028433561325073,-0.2739059031009674
1687353396886885000,12.957885009765626,-0.10732531547546387,0.2071937769651413,-0.2451438009738922
1687353396906997500,12.97799755859375,-0.05086633935570717,0.09960214793682098,-0.24194800853729248
1687353396927110000,12.99810986328125,-0.08388951420783997,0.09321057051420212,-0.25260064005851746
1687353396947222300,13.01822216796875,-0.138217955827713,0.41705071926116943,-0.42197754979133606
1687353396967334700,13.038334716796875,-0.12543480098247528,0.94648677110672,-0.7085334658622742
1687353396987447000,13.058447021484374,-0.1243695318698883,1.0679267644882202,-0.7447524666786194
1687353397007559400,13.078559326171876,-0.1765674501657486,0.7089329361915588,-0.44115230441093445
1687353397027671800,13.098671875,-0.19680745899677277,0.08788424730300903,-0.07576687633991241
1687353397047784200,13.1187841796875,-0.13289164006710052,-0.38402754068374634,0.15219953656196594
1687353397067896600,13.138896484375,-0.016777902841567993,-0.5747097134590149,0.2288985252380371
1687353397088009000,13.159009033203125,0.0727042406797409,-0.6215813159942627,0.23315958678722382
1687353397108121300,13.179121337890624,0.006657897960394621,-0.8676572442054749,0.28429222106933594
1687353397128233700,13.199233642578125,-0.2138516753911972,-1.4045500755310059,0.4696480929851532
1687353397148346000,13.21934619140625,-0.5856286883354187,-2.1896493434906006,0.7370292544364929
1687353397168458500,13.23945849609375,-1.0309089422225952,-3.104710817337036,1.0480862855911255
1687353397188571000,13.25957080078125,-1.2897679805755615,-3.7523910999298096,1.5285202264785767
1687353397208683300,13.279683349609375,-1.3025511503219604,-4.363852500915527,2.283792018890381
1687353397228795600,13.299795654296876,-1.1012163162231445,-4.883701324462891,3.0497167110443115
1687353397248908000,13.319907958984375,-0.8402267098426819,-5.1169939041137695,3.444929361343384
1687353397269020200,13.340020263671875,-0.814660370349884,-5.38224458694458,3.5216283798217773
1687353397289132500,13.360132568359376,-1.0777804851531982,-5.620863437652588,3.226550340652466
1687353397309245000,13.380244873046875,-1.5518227815628052,-5.679452896118164,2.743985891342163
1687353397329357300,13.400357421875,-2.1526315212249756,-5.877592086791992,2.3700783252716064
1687353397349469700,13.4204697265625,-2.6927201747894287,-6.359091281890869,2.3242721557617188
1687353397369582000,13.44058203125,-3.052779197692871,-7.203845500946045,2.641720771789551
1687353397389694200,13.460694091796874,-3.41603422164917,-8.371374130249023,3.0901966094970703
1687353397409806600,13.480806640625,-3.8954029083251953,-9.098949432373047,3.2627694606781006
1687353397429919000,13.5009189453125,-4.322573661804199,-9.002010345458984,2.8654260635375977
1687353397450031400,13.52103125,-4.293811321258545,-7.46803092956543,1.5700654983520508
1687353397470143700,13.541143798828125,-3.2754194736480713,-4.395810604095459,-0.49228495359420776
1687353397490256100,13.561256103515625,0.7299718856811523,0.9273120164871216,-4.354930877685547
1687353397510368300,13.5813681640625,10.436654090881348,7.150582313537598,-11.51350212097168
1687353397530480600,13.601480712890625,21.339628219604492,10.427332878112793,-18.714685440063477
1687353397550593000,13.621593017578125,29.560266494750977,14.59677505493164,-22.521936416625977
1687353397570705400,13.641705322265626,31.527809143066406,20.2735652923584,-21.166921615600586
1687353397590817800,13.66181787109375,19.485004425048828,22.870677947998047,-8.263382911682129
1687353397610930200,13.68193017578125,-0.903077244758606,0.18695376813411713,11.945733070373535
1687353397631042600,13.70204248046875,-5.3324432373046875,-19.222148895263672,13.425384521484375
1687353397651154700,13.72215478515625,2.106292486190796,-7.870700359344482,8.101197242736816
1687353397671267000,13.74226708984375,4.28369140625,6.840590476989746,2.5096280574798584
1687353397691379500,13.76237939453125,3.485808849334717,6.965226173400879,0.05632581561803818
1687353397711491800,13.782491943359375,1.061268925666809,-1.8956366777420044,2.259290933609009
1687353397731604200,13.802604248046874,-0.5707150101661682,-5.299153804779053,5.56160831451416
1687353397751716600,13.822716552734375,-0.8700540661811829,-3.155843496322632,6.138981342315674
1687353397771828700,13.842828857421875,-0.48549389839172363,-1.5142722129821777,5.545629501342773
1687353397791941000,13.862941162109376,-0.827443540096283,-1.4492912292480469,4.314184665679932
1687353397812053500,13.883053466796875,-2.0791282653808594,-3.527620553970337,2.7461163997650146
1687353397832166000,13.903165771484375,-3.038930892944336,-5.592101573944092,1.7905750274658203
1687353397852278300,13.9232783203125,-3.4437310695648193,-7.656582355499268,1.4422338008880615
1687353397872390700,13.943390625,-4.070106029510498,-9.47179126739502,1.565804362297058
1687353397892502800,13.963502685546874,-4.506864070892334,-10.87900447845459,2.0813920497894287
1687353397912615200,13.983615234375,-4.303398609161377,-11.442529678344727,2.480865955352783
1687353397932727600,14.0037275390625,-3.271158218383789,-10.869417190551758,2.441451072692871
1687353397952840000,14.02383984375,-0.948883593082428,-8.21158504486084,1.569000244140625
1687353397972952300,14.043952392578126,3.2386677265167236,-4.259456634521484,-2.1977720260620117
1687353397993064700,14.064064697265625,8.153794288635254,2.0916452407836914,-9.561939239501953
1687353398013177000,14.084177001953124,12.165576934814453,12.891287803649902,-16.111181259155273
1687353398033289200,14.104289306640625,15.636205673217773,22.79184913635254,-19.869430541992188
1687353398053401600,14.124401611328125,18.33771514892578,23.642993927001953,-12.994218826293945
1687353398073514000,14.144513916015624,15.709709167480469,16.194669723510742,0.5069323182106018
1687353398093626400,14.16462646484375,6.888260841369629,-0.6737792491912842,16.295204162597656
1687353398113738800,14.18473876953125,5.37558650970459,-12.106188774108887,15.593195915222168
1687353398133851100,14.20485107421875,8.364716529846191,-4.784631729125977,8.983235359191895
1687353398153963300,14.22496337890625,5.702622413635254,0.1454084813594818,5.228180885314941
1687353398174075600,14.24507568359375,2.0093536376953125,-0.4223770201206207,4.330163478851318
1687353398194188000,14.26518798828125,-0.32037803530693054,-2.3228073120117188,3.657982110977173
1687353398214300400,14.285300537109375,-0.8540751338005066,-2.371809482574463,1.7607476711273193
1687353398234412800,14.305412841796874,-0.873249888420105,-1.100950002670288,-0.3687143921852112
1687353398254525200,14.325525146484376,-1.3249216079711914,-0.1411474347114563,-1.7748624086380005
1687353398274637600,14.345637451171875,-1.9481009244918823,-0.3307643532752991,-2.504567861557007
1687353398294749700,14.365749755859374,-2.2708756923675537,-1.252217411994934,-2.7495787143707275
1687353398314862000,14.385862060546875,-1.929991364479065,-1.8157418966293335,-2.4268038272857666
1687353398334974500,14.405974365234375,-1.1747194528579712,-1.7369123697280884,-2.200967788696289
1687353398355086800,14.4260869140625,-0.5227781534194946,-1.7837839126586914,-1.8973677158355713
1687353398375199200,14.44619921875,-0.3736412227153778,-2.0969715118408203,-1.3487569093704224
1687353398395311600,14.4663115234375,-0.46205809712409973,-2.7616961002349854,-0.7021418809890747
1687353398415423700,14.486423828125,-0.3310306668281555,-3.0642309188842773,-0.28136277198791504
1687353398435536100,14.5065361328125,0.16112112998962402,-2.356895923614502,-0.10559425503015518
1687353398455648500,14.5266484375,0.8748477697372437,-1.3108068704605103,-0.027830012142658234
1687353398475761000,14.546760986328126,1.1614036560058594,-0.5534044504165649,0.10106688737869263
1687353398495873300,14.566873291015625,0.8972182869911194,-0.3307643532752991,0.39188385009765625
1687353398515985400,14.5869853515625,0.4157191216945648,-0.34141698479652405,0.677374541759491
1687353398536097800,14.607097900390626,0.08974846452474594,-0.4095938801765442,0.8254461884498596
1687353398556210200,14.627210205078125,0.019441060721874237,-0.3680485785007477,0.8062714338302612
1687353398576322300,14.647322265625,-0.009321057237684727,-0.502271831035614,0.6518082022666931
1687353398596434700,14.6674345703125,-0.019973693415522575,-0.6652571558952332,0.43769019842147827
1687353398616547000,14.687547119140625,0.024767380207777023,-0.5523391962051392,0.195875346660614
1687353398636659200,14.7076591796875,0.08335687965154648,-0.39681071043014526,0.07550056278705597
1687353398656771600,14.727771484375,0.09294424951076508,-0.1177116334438324,0.09041424840688705
1687353398676884000,14.747884033203125,0.14727269113063812,0.1645832359790802,0.12024163454771042
1687353398696996000,14.76799609375,0.2601906359195709,0.28495803475379944,0.06378266215324402
1687353398717108500,14.7881083984375,0.2623211741447449,0.3723096549510956,-0.07363634556531906
1687353398737220600,14.808220703125,0.18668745458126068,0.3147853910923004,-0.20146799087524414
1687353398757333000,14.8283330078125,0.10785794258117676,0.21252009272575378,-0.22490379214286804
1687353398777445400,14.8484453125,0.08335687965154648,0.08894951641559601,-0.16737954318523407
1687353398797557500,14.8685576171875,0.07376950979232788,-0.13795164227485657,-0.14074796438217163
1687353398817670000,14.888669921875,0.06737792491912842,-0.37870121002197266,-0.14927007257938385
1687353398837782300,14.9087822265625,0.03435475379228592,-0.5086634159088135,-0.15246586501598358
1687353398857894400,14.928894287109374,-0.07643266767263412,-0.5917539596557617,-0.1279647946357727
1687353398878006800,14.9490068359375,-0.2191779911518097,-0.7387603521347046,-0.019307903945446014
1687353398898119200,14.969119140625,-0.3257043659687042,-0.9166593551635742,0.1394163817167282
1687353398918231300,14.989231201171876,-0.3651190996170044,-1.1073415279388428,0.2896185517311096
1687353398938343700,15.00934375,-0.35233595967292786,-1.0114678144454956,0.35886070132255554
1687353398958455800,15.029455810546875,-0.2181127369403839,-0.7611308693885803,0.3375554084777832
1687353398978568200,15.049568115234376,-0.011451584286987782,-0.683366596698761,0.3705785870552063
1687353398998680600,15.0696806640625,0.07803056389093399,-0.8932235836982727,0.5133239030838013
1687353399018792700,15.089792724609374,0.006657897960394621,-1.3800489902496338,0.7189198136329651
1687353399038905000,15.109905029296876,-0.110521100461483,-1.927594542503357,0.9277114868164062
1687353399059017500,15.130017578125,-0.1904158741235733,-2.242912530899048,1.0438252687454224
1687353399079129600,15.150129638671874,-0.24048326909542084,-2.390984296798706,1.0566083192825317
1687353399099242000,15.170241943359375,-0.41944757103919983,-2.5571653842926025,1.0512820482254028
1687353399119354400,15.190354248046875,-0.7709845304489136,-2.454900026321411,0.8872314691543579
1687353399139466500,15.210466552734376,-1.3004206418991089,-2.1012325286865234,0.5346291661262512
1687353399159579000,15.230578857421875,-1.6178691387176514,-2.0703399181365967,0.20972378551959991
1687353399179691300,15.250691162109375,-1.5614101886749268,-2.3249378204345703,0.13195952773094177
1687353399199803400,15.270803466796876,-1.5464965105056763,-2.777674913406372,0.27896592020988464
1687353399219915800,15.290915771484375,-1.698829174041748,-3.378483533859253,0.34075120091438293
1687353399240028200,15.311028076171874,-1.9459702968597412,-4.0453386306762695,0.5740439295768738
1687353399260140300,15.331140380859376,-2.3124210834503174,-3.834416389465332,1.0512820482254028
1687353399280252700,15.351252685546875,-2.383793830871582,-3.467965841293335,1.298423171043396
1687353399300365000,15.371364990234374,-2.2527663707733154,-3.7577176094055176,1.507214903831482
1687353399320477400,15.3914775390625,-2.0738019943237305,-4.683431625366211,1.811880350112915
1687353399340589800,15.41158984375,-1.9267956018447876,-5.153213024139404,2.0366508960723877
1687353399360702200,15.4317021484375,-1.7126775979995728,-4.711128234863281,1.9865835905075073
1687353399380814600,15.451814697265625,-1.3281174898147583,-4.037881851196289,1.5530211925506592
1687353399400926700,15.4719267578125,-1.0064078569412231,-3.815241813659668,1.025715708732605
1687353399421039000,15.4920390625,-0.873249888420105,-4.116711139678955,0.6901576519012451
1687353399441151500,15.5121513671875,-0.9925593733787537,-4.141212463378906,0.6592650413513184
1687353399461264000,15.532263916015625,-1.2365047931671143,-3.8876795768737793,1.008671522140503
1687353399481376300,15.552376220703126,-1.1843068599700928,-3.8035237789154053,1.518932819366455
1687353399501488600,15.572488525390625,-0.016777902841567993,-2.866091728210449,1.0544778108596802
1687353399521600800,15.592600830078124,3.9236323833465576,1.1595394611358643,-2.1242687702178955
1687353399541713200,15.612713134765626,12.00578784942627,9.728520393371582,-9.534242630004883
1687353399561825500,15.632825439453125,21.40886878967285,17.89056968688965,-18.625202178955078
1687353399581938000,15.65293798828125,27.689664840698242,20.041337966918945,-21.66972541809082
1687353399602050300,15.67305029296875,26.64250946044922,20.580360412597656,-13.832581520080566
1687353399622162700,15.69316259765625,11.355977058410645,17.395221710205078,4.298205852508545
1687353399642274800,15.71327490234375,-4.569714546203613,-8.009184837341309,13.375317573547363
1687353399662387200,15.73338720703125,-2.7097644805908203,-16.115840911865234,10.206157684326172
1687353399682499600,15.75349951171875,0.7448856234550476,-5.14682149887085,3.741072654724121
1687353399702612000,15.773612060546874,0.592552900314331,3.6298859119415283,0.9532778263092041
1687353399722724400,15.793724365234375,-0.2607232630252838,1.7667397260665894,1.0715221166610718
1687353399742836700,15.813836669921875,-2.397642135620117,-4.243477821350098,3.146655559539795
1687353399762949000,15.83394921875,-4.907403469085693,-7.996401309967041,5.112067222595215
1687353399783061200,15.854061279296875,-6.765223026275635,-9.241694450378418,6.233789443969727
1687353399803173600,15.874173583984375,-7.872032165527344,-9.875526428222656,6.917688846588135
1687353399823286000,15.8942861328125,-8.035017013549805,-10.344243049621582,7.007171154022217
1687353399843398400,15.9143984375,-7.437404632568359,-10.64358139038086,6.344577312469482
1687353399863510800,15.9345107421875,-6.341248035430908,-10.225997924804688,5.3815789222717285
1687353399883623200,15.954623046875,-4.432295799255371,-8.158321380615234,4.544281482696533
1687353399903735300,15.9747353515625,-1.3014858961105347,-4.779305458068848,3.3533167839050293
1687353399923847700,15.99484765625,3.0320067405700684,-1.071122646331787,0.7370292544364929
1687353399943960000,16.0149599609375,8.005722999572754,1.7997629642486572,-5.2742533683776855
1687353399964072400,16.035072509765627,13.003939628601074,7.87389612197876,-12.421107292175293
1687353399984184800,16.055184814453124,17.927587509155273,14.675604820251465,-19.88434410095215
1687353400004297200,16.075297119140625,20.18701171875,17.63597297668457,-23.1674861907959
1687353400024409600,16.09540966796875,20.603530883789062,18.75130271911621,-13.613137245178223
1687353400044521700,16.115521728515624,16.76964569091797,13.516597747802734,4.348272800445557
1687353400064634000,16.135634033203125,6.967090606689453,-1.3416996002197266,17.806814193725586
1687353400084746500,16.15574658203125,4.279430389404297,-10.096035957336426,14.913558006286621
1687353400104859000,16.17585888671875,7.354846477508545,-2.0522303581237793,7.165895462036133
1687353400124971300,16.19597119140625,5.401153087615967,3.2815446853637695,4.0968708992004395
1687353400145083600,16.216083740234374,2.8072359561920166,1.4024195671081543,5.1429595947265625
1687353400165195800,16.23619580078125,1.5992270708084106,-1.3587437868118286,4.503801345825195
1687353400185308200,16.25630810546875,0.726776123046875,-3.0099024772644043,2.3796658515930176
1687353400205420500,16.276420654296874,-0.33848753571510315,-2.9896624088287354,0.5452818274497986
1687353400225533000,16.296532958984375,-1.0181257724761963,-1.6602133512496948,-0.8001461625099182
1687353400245645300,16.316645263671877,-1.108673095703125,-0.6269076466560364,-1.2624706029891968
1687353400265757700,16.3367578125,-1.1683279275894165,-1.0135983228683472,-0.943956732749939
1687353400285869800,16.356869873046875,-1.1246521472930908,-2.008554697036743,-0.515720784664154
1687353400305982200,16.376982177734376,-0.7645930051803589,-2.520946502685547,-0.3633880615234375
1687353400326094600,16.397094482421874,-0.10306425392627716,-2.618950605392456,-0.575375497341156
1687353400346207000,16.41720703125,0.23995064198970795,-2.7893929481506348,-0.6925545334815979
1687353400366319400,16.4373193359375,0.04713791608810425,-3.134538173675537,-0.3953459560871124
1687353400386431700,16.457431640625,-0.2990727722644806,-3.402984619140625,-0.11731215566396713
1687353400406544100,16.477544189453123,-0.3214432895183563,-3.1611697673797607,-0.20572903752326965
1687353400426656300,16.49765625,0.0034621069207787514,-2.697780132293701,-0.5902892351150513
1687353400446768600,16.5177685546875,0.2985401451587677,-2.28232741355896,-0.6829671263694763
1687353400466881000,16.537881103515623,0.3731085956096649,-2.0660789012908936,-0.3761712312698364
1687353400486993400,16.557993408203124,0.12596742808818817,-1.8146766424179077,0.07017423957586288
1687353400507105800,16.578105712890626,-0.22663484513759613,-1.7837839126586914,0.3663175404071808
1687353400527218200,16.59821826171875,-0.3821633458137512,-1.8700703382492065,0.5655218362808228
1687353400547330300,16.618330322265624,-0.4013380706310272,-1.9041587114334106,0.8030756115913391
1687353400567442700,16.638442626953125,-0.36724963784217834,-1.810415506362915,0.9319725036621094
1687353400587555000,16.65855517578125,-0.3118559420108795,-1.7198681831359863,0.8776440620422363
1687353400607667200,16.678667236328124,-0.26285380125045776,-1.6197333335876465,0.7348987460136414
1687353400627779600,16.698779541015625,-0.20532956719398499,-1.4759228229522705,0.6134586930274963
1687353400647892000,16.71889208984375,-0.035952646285295486,-1.41094172000885,0.5207807421684265
1687353400668004000,16.739004150390624,-0.023169483989477158,-0.7281076908111572,0.4632565379142761
1687353400688116500,16.759116455078125,-0.09347688406705856,0.01225053146481514,0.2715090811252594
1687353400708228900,16.779228759765626,-0.002929474925622344,0.4479433596134186,-0.05339634045958519
1687353400728343300,16.79934326171875,0.0918789878487587,0.7430213689804077,-0.4251733422279358
1687353400748453600,16.81945361328125,0.09294424951076508,0.972053050994873,-0.7575356364250183
1687353400768564000,16.83956396484375,0.15686006844043732,0.9539436101913452,-0.9588704109191895
1687353400788674600,16.859674560546875,0.2857569754123688,0.7590003609657288,-0.914129376411438
1687353400808785200,16.87978515625,0.32836753129959106,0.47777074575424194,-0.642487108707428
1687353400828896300,16.899896240234376,0.24634221196174622,0.00798947736620903,-0.2877543270587921
1687353400849007600,16.920007568359374,0.1621863842010498,-0.24554327130317688,0.08189214020967484
1687353400869119200,16.940119140625,0.171773761510849,-0.39254966378211975,0.22676800191402435
1687353400889231000,16.960231201171876,0.29640960693359375,-0.4809665381908417,0.26085641980171204
1687353400909343200,16.98034326171875,0.3635212182998657,-0.5310339331626892,0.23209431767463684
1687353400929455900,17.000455810546875,0.34860754013061523,-0.5033370852470398,0.17457008361816406
1687353400949568800,17.02056884765625,0.31025803089141846,-0.4522044062614441,0.02330264262855053
1687353400969682000,17.040681884765625,0.2793653905391693,-0.29028433561325073,-0.22064273059368134
1687353400989795000,17.060795166015627,0.35819488763809204,0.004793686326593161,-0.3633880615234375
1687353401009908700,17.08090869140625,0.2942790687084198,0.23169484734535217,-0.6414218544960022
1687353401030022100,17.101022216796874,0.04394212365150452,0.502271831035614,-0.9556746482849121
1687353401050135800,17.1211357421875,-0.15632744133472443,0.43409493565559387,-0.9673925638198853
1687353401070249500,17.14124951171875,-0.39494648575782776,-0.01651158556342125,-0.7628619074821472
1687353401090363000,17.16136279296875,-0.6974813938140869,-1.0668615102767944,-0.22596904635429382
1687353401110475000,17.18147509765625,-1.0980205535888672,-2.5614264011383057,0.6123934388160706
1687353401130587400,17.20158740234375,-1.341965913772583,-4.141212463378906,1.44010329246521
1687353401150699800,17.22169970703125,-1.527321696281433,-5.2906317710876465,2.0366508960723877
1687353401170812000,17.24181201171875,-1.6327828168869019,-5.744434356689453,2.391383647918701
1687353401190924300,17.26192431640625,-1.8564882278442383,-5.992640495300293,2.5085628032684326
1687353401211036700,17.28203662109375,-2.105759859085083,-6.493314743041992,2.635329008102417
1687353401231148800,17.302148681640624,-2.383793830871582,-7.08986234664917,2.878209114074707
1687353401251261200,17.32226123046875,-2.671414852142334,-7.6469950675964355,3.181809425354004
1687353401271373300,17.342373291015626,-2.885532855987549,-7.942072868347168,3.284074544906616
1687353401291485700,17.362485595703124,-2.9164254665374756,-7.584144592285156,2.9751482009887695
1687353401311598000,17.38259814453125,-2.756635904312134,-6.649908065795898,2.342381477355957
1687353401331710200,17.402710205078126,-2.348639965057373,-5.014728546142578,1.4219938516616821
1687353401351822600,17.422822509765624,-0.8306393027305603,-2.2354557514190674,-0.08215846121311188
1687353401371935000,17.44293505859375,3.351585626602173,2.346243143081665,-3.619899034500122
1687353401392047000,17.463047119140626,10.596444129943848,8.629168510437012,-9.748360633850098
1687353401412159500,17.483159423828123,17.875391006469727,17.099079132080078,-16.9090633392334
1687353401432272000,17.50327197265625,22.20781707763672,23.026206970214844,-21.74642562866211
1687353401452384000,17.523384033203126,20.806995391845703,27.351177215576172,-20.302993774414062
1687353401472496400,17.543496337890623,13.050810813903809,25.481639862060547,-6.1083550453186035
1687353401492608500,17.5636083984375,2.973417043685913,4.938029766082764,11.605914115905762
1687353401512721000,17.583720947265626,-1.0298435688018799,-13.649755477905273,15.587869644165039
1687353401532833300,17.603833251953127,2.213884115219116,-10.105623245239258,9.728919982910156
1687353401552945400,17.6239453125,2.1840567588806152,1.4599437713623047,3.7485296726226807
1687353401573057800,17.644057861328125,0.3645864725112915,5.012598037719727,1.1354378461837769
1687353401593170000,17.664169921875,-0.6442182064056396,0.04527370631694794,1.255812644958496
1687353401613282300,17.6842822265625,-1.1992205381393433,-5.320459365844727,2.510693311691284
1687353401633394400,17.70439453125,-1.984319806098938,-8.216911315917969,4.051064491271973
1687353401653506800,17.7245068359375,-3.1901981830596924,-9.722128868103027,5.786378860473633
1687353401673619000,17.744618896484376,-4.482363224029541,-11.775957107543945,7.2862701416015625
1687353401693731000,17.76473095703125,-5.201416015625,-13.459073066711426,7.9616475105285645
1687353401713843500,17.784843505859374,-5.172654151916504,-13.809545516967773,7.892405033111572
1687353401733955600,17.80495556640625,-4.483428478240967,-12.832698822021484,6.8548383712768555
1687353401754068000,17.82506787109375,-3.276484727859497,-10.327198028564453,5.287835597991943
1687353401774180000,17.84518017578125,-0.9084035754203796,-6.154560565948486,2.6832659244537354
1687353401794292500,17.86529248046875,3.495396375656128,-0.2583264410495758,-1.772731900215149
1687353401814404600,17.885404541015625,9.607878684997559,5.787044525146484,-7.8244948387146
1687353401834517000,17.90551708984375,15.327280044555664,11.114428520202637,-14.865887641906738
1687353401854629000,17.925629150390623,18.567811965942383,15.937941551208496,-20.170900344848633
1687353401874741200,17.9457412109375,19.048246383666992,19.24345588684082,-20.06117820739746
1687353401894853600,17.965853515625,17.797626495361328,19.310565948486328,-10.843451499938965
1687353401914965800,17.9859658203125,12.74401569366455,7.774826526641846,7.046586036682129
1687353401935078100,18.006078125,3.648794174194336,-8.531164169311523,17.655546188354492
1687353401955190300,18.026190185546874,2.810431718826294,-13.586905479431152,14.865620613098145
1687353401975302700,18.046302734375,5.599291801452637,-3.611776351928711,7.227680683135986
1687353401995414800,18.066414794921876,3.0256149768829346,5.190496921539307,2.2358553409576416
1687353402015527000,18.08652685546875,0.3837612271308899,4.8538737297058105,0.7604650855064392
1687353402035639300,18.106639404296875,-0.9073383212089539,1.0615352392196655,0.5165197253227234
1687353402055751400,18.12675146484375,-1.1970900297164917,-2.1161463260650635,0.40040597319602966
1687353402075863800,18.14686376953125,-0.7454182505607605,-2.940660238265991,0.2288985252380371
1687353402095976000,18.166975830078126,-0.22130851447582245,-1.834916591644287,0.0786963477730751
1687353402116088300,18.18708837890625,-0.11904320865869522,-0.5811012983322144,0.021172115579247475
1687353402136200400,18.207200439453125,-0.5568665862083435,-0.2721748650074005,-0.17803218960762024
1687353402156312600,18.2273125,-1.0181257724761963,-0.6812360882759094,-0.4304996728897095
1687353402176425000,18.247425048828124,-1.054344654083252,-1.0572742223739624,-0.7852324843406677
1687353402196537000,18.267537109375,-0.8370308876037598,-0.9049414396286011,-1.1548789739608765
1687353402216649500,18.2876494140625,-0.48016759753227234,-0.6780403256416321,-1.270992636680603
1687353402236761600,18.30776171875,-0.19680745899677277,-0.7824361324310303,-1.1474220752716064
1687353402256874000,18.3278740234375,-0.13715268671512604,-0.9869667887687683,-0.8800409436225891
1687353402276986000,18.347986083984374,-0.06897582113742828,-1.2681963443756104,-0.6382260918617249
1687353402297098500,18.368098388671875,0.16964323818683624,-1.3843101263046265,-0.42197754979133606
1687353402317210600,18.388210693359376,0.5797697305679321,-0.8101329803466797,-0.08641951531171799
1687353402337323000,18.408322998046874,0.9568730592727661,-0.43409493565559387,0.3055975139141083
1687353402357435100,18.42843505859375,1.0463552474975586,-0.49268442392349243,0.6145239472389221
1687353402377547500,18.448547607421876,0.8492814302444458,-0.4330296814441681,0.8392946124076843
1687353402397660000,18.468659912109374,0.6383592486381531,-0.3616569936275482,0.9010798931121826
1687353402417772000,18.48877197265625,0.5499423742294312,-0.267913818359375,0.7956187725067139
1687353402437884400,18.508884521484376,0.5020055174827576,-0.05592634156346321,0.5985450148582458
1687353402457996800,18.528996826171873,0.4498075842857361,-0.030360013246536255,0.4227765202522278
1687353402478109000,18.54910888671875,0.3613906800746918,-0.20080219209194183,0.26937854290008545
1687353402498221300,18.56922119140625,0.18881797790527344,-0.2636527419090271,0.2203764170408249
1687353402518333700,18.589333740234373,0.07803056389093399,-0.22210747003555298,0.17989639937877655
1687353402538445800,18.60944580078125,0.09294424951076508,-0.0985368862748146,0.06378266215324402
1687353402558558200,18.62955810546875,0.15472954511642456,0.09640636295080185,-0.039547912776470184
1687353402578670300,18.64967041015625,0.20266640186309814,0.1177116334438324,-0.0672447681427002
1687353402598782700,18.66978271484375,0.20373167097568512,0.01651158556342125,-0.018242640420794487
1687353402618895000,18.68989501953125,0.18455693125724792,-0.2253032624721527,0.04993423447012901
1687353402639007200,18.71000732421875,0.10146636515855789,-0.44581282138824463,0.09041424840688705
1687353402659119600,18.73011962890625,0.03328948840498924,-0.5012065172195435,0.09680583328008652
1687353402679232000,18.75023193359375,-0.028495801612734795,-0.5949497222900391,0.07656582444906235
1687353402699344100,18.77034423828125,-0.10519478470087051,-0.7760445475578308,0.08615319430828094
1687353402719456500,18.79045654296875,-0.19148114323616028,-0.984836220741272,0.12876373529434204
1687353402739569000,18.81056884765625,-0.23941799998283386,-1.190432071685791,0.17989639937877655
1687353402759681000,18.830680908203124,-0.2660495936870575,-1.5025544166564941,0.30133646726608276
1687353402779793400,18.85079345703125,-0.3310306668281555,-2.083122968673706,0.5921534299850464
1687353402799905800,18.87090576171875,-0.45992758870124817,-2.2450430393218994,0.8435556292533875
1687353402820018000,18.891017822265624,-0.5920202732086182,-2.0660789012908936,0.9159935712814331
1687353402840130300,18.91113037109375,-0.7049382328987122,-1.9680745601654053,0.8882967233657837
1687353402860242400,18.931242431640626,-0.9616667628288269,-2.4495737552642822,0.9213199019432068
1687353402880354800,18.951354736328124,-1.3451616764068604,-3.3997888565063477,1.0342378616333008
1687353402900467200,18.97146728515625,-1.687111258506775,-4.206193447113037,1.0566083192825317
1687353402920579300,18.991579345703126,-1.971536636352539,-4.804871559143066,1.100284218788147
1687353402940691700,19.011691650390624,-2.169675827026367,-5.204345703125,1.427320122718811
1687353402960804000,19.03180419921875,-2.3752715587615967,-5.603819370269775,2.0078887939453125
1687353402980916200,19.051916259765626,-2.601107597351074,-6.060817718505859,2.4510385990142822
1687353403001028600,19.072028564453124,-2.74491810798645,-6.244042873382568,2.551173210144043
1687353403021140700,19.092140625,-2.670349597930908,-6.0395121574401855,2.4499731063842773
1687353403041252900,19.1122529296875,-2.5265390872955322,-5.519663333892822,2.4787354469299316
1687353403061365200,19.132365234375,-2.225069522857666,-4.9486823081970215,2.540520668029785
1687353403081477400,19.152477294921876,-1.7648755311965942,-4.763326168060303,2.447842597961426
1687353403101589800,19.17258984375,-1.4069468975067139,-4.525772571563721,2.2401163578033447
1687353403121702000,19.192701904296875,-1.196024775505066,-3.7417385578155518,1.7032233476638794
1687353403141814300,19.212814208984376,-0.9755151867866516,-2.8959193229675293,1.0150630474090576
1687353403161926400,19.232926513671874,-0.7113298177719116,-2.296175718307495,0.4792354702949524
1687353403182038500,19.25303857421875,-0.47058022022247314,-1.8445039987564087,0.08402267098426819
1687353403202151000,19.27315087890625,-0.17443692684173584,-1.6207985877990723,-0.2035985141992569
1687353403222263000,19.293262939453125,0.1994706094264984,-1.2831100225448608,-0.5870934128761292
1687353403242375400,19.31337548828125,0.793887734413147,-0.5534044504165649,-1.3263863325119019
1687353403262487600,19.333487548828124,2.377934694290161,1.0210552215576172,-3.1415956020355225
1687353403282600000,19.353599853515625,6.01154899597168,4.108189105987549,-7.447391510009766
1687353403302712000,19.373712158203126,11.757580757141113,10.185518264770508,-15.009697914123535
1687353403322824200,19.39382421875,17.658077239990234,17.32811164855957,-22.891584396362305
1687353403342936600,19.4139365234375,21.477046966552734,21.271717071533203,-24.3989315032959
1687353403363048700,19.434048583984374,23.067485809326172,22.43178939819336,-13.374518394470215
1687353403383161000,19.4541611328125,14.94804573059082,12.823111534118652,6.446842193603516
1687353403403273200,19.474273193359377,2.964895009994507,-9.394027709960938,18.36181640625
1687353403423385600,19.494385498046874,5.9082183837890625,-13.409006118774414,11.947863578796387
1687353403443497700,19.514497802734375,5.618466854095459,-2.708432912826538,4.485692024230957
1687353403463609900,19.53460986328125,1.5875091552734375,-1.9030934572219849,3.920037031173706
1687353403483722000,19.554721923828126,-1.1257174015045166,-6.197171211242676,4.695549011230469
1687353403503834400,19.57483447265625,-2.1483705043792725,-10.005488395690918,4.659329891204834
1687353403523946500,19.594946533203125,-3.0900635719299316,-13.028706550598145,5.692635536193848
1687353403544058600,19.61505859375,-4.091411113739014,-13.68490982055664,7.301183700561523
1687353403564170800,19.635170654296875,-5.4474921226501465,-13.168256759643555,8.011714935302734
1687353403584283100,19.655283203125,-6.253896713256836,-13.008466720581055,7.3214240074157715
1687353403604395300,19.675395263671874,-5.775593280792236,-12.740020751953125,5.946168422698975
1687353403624507400,19.69550732421875,-4.501537799835205,-10.768217086791992,4.476104736328125
1687353403644619500,19.71561962890625,-2.4594273567199707,-6.639255523681641,2.6225459575653076
1687353403664731600,19.735731689453125,0.48922231793403625,-1.659148097038269,-0.0043942127376794815
1687353403684844000,19.755843994140626,4.218710422515869,1.1797795295715332,-2.881671190261841
1687353403704956200,19.7759560546875,7.966307640075684,2.386723279953003,-5.933651447296143
1687353403725068300,19.796068359375,11.561573028564453,3.8035237789154053,-9.24981689453125
1687353403745180400,19.816180419921874,15.386934280395508,6.136451244354248,-13.133769035339355
1687353403765292800,19.836292724609375,19.230405807495117,10.795914649963379,-17.638769149780273
1687353403785405000,19.856405029296877,20.476764678955078,17.795761108398438,-20.940019607543945
1687353403805517000,19.87651708984375,18.91189193725586,22.411548614501953,-15.871496200561523
1687353403825629200,19.896629150390623,14.602900505065918,15.426615715026855,-1.7045550346374512
1687353403845741600,19.916741455078125,6.757233619689941,1.0700572729110718,13.32418441772461
1687353403865853700,19.936853759765626,3.9428069591522217,-9.795631408691406,15.151111602783203
1687353403885965800,19.9569658203125,5.714340686798096,-8.742086410522461,11.377947807312012
1687353403906078000,19.977077880859376,5.743102550506592,-3.755586862564087,7.227680683135986
1687353403926190000,19.997190185546874,3.9598512649536133,-1.8860492706298828,5.463603973388672
1687353403946302500,20.017302490234375,2.2714083194732666,-3.5531868934631348,5.077978610992432
1687353403966414600,20.03741455078125,0.8950877785682678,-4.674909591674805,4.053194999694824
1687353403986526700,20.057526611328125,-0.30013802647590637,-3.1324076652526855,2.15382981300354
1687353404006639000,20.07763916015625,-0.9808415174484253,-1.2852405309677124,0.3929491341114044
1687353404026751200,20.097751220703124,-1.354749083518982,-0.29880645871162415,-0.7564703226089478
1687353404046863400,20.11786328125,-1.644500732421875,-0.13795164227485657,-1.442500114440918
1687353404066975700,20.137975830078126,-1.7936376333236694,-0.5459476113319397,-1.7982982397079468
1687353404087087900,20.158087890625,-1.5954985618591309,-0.9731183648109436,-1.8952372074127197
1687353404107200300,20.1782001953125,-1.1438268423080444,-1.1989542245864868,-2.0241341590881348
1687353404127312400,20.1983125,-0.7560708522796631,-1.173387885093689,-1.9623488187789917
1687353404147424800,20.2184248046875,-0.47910231351852417,-1.2500869035720825,-1.794037103652954
1687353404167537000,20.238536865234376,-0.45566651225090027,-1.1595394611358643,-1.6406391859054565
1687353404187649300,20.258649169921874,-0.47910231351852417,-0.879375159740448,-1.4510222673416138
1687353404207761400,20.278761474609375,-0.2564622163772583,-0.5129244327545166,-1.2379695177078247
1687353404227873500,20.29887353515625,0.0588558167219162,-0.13369058072566986,-0.7937545776367188
1687353404247986000,20.31898583984375,0.27297380566596985,-0.1976063996553421,-0.23768694698810577
1687353404268098000,20.33909814453125,0.3273022472858429,-0.49055391550064087,0.16498270630836487
1687353404288210400,20.35921044921875,0.2942790687084198,-0.6343644857406616,0.3705785870552063
1687353404308322600,20.379322509765625,0.29108327627182007,-0.6215813159942627,0.41105860471725464
1687353404328435000,20.39943505859375,0.18668745458126068,-0.3818970024585724,0.34394699335098267
1687353404348547000,20.419547119140624,0.00985368900001049,0.01438105944544077,0.24700801074504852
1687353404368659200,20.4396591796875,-0.10199899226427078,0.24341274797916412,0.22996379435062408
1687353404388771600,20.459771484375,-0.10945583879947662,0.34567806124687195,0.21931114792823792
1687353404408883700,20.4798837890625,-0.03382211923599243,0.19014956057071686,0.1585911214351654
1687353404428996000,20.49999609375,-0.04660528525710106,-0.15712638199329376,0.0691089779138565
1687353404449108200,20.520108154296874,-0.09560741484165192,-0.3392864763736725,0.04673844203352928
1687353404469220600,20.540220703125,-0.03382211923599243,-0.354200154542923,-0.012916321866214275
1687353404489332700,20.560332763671877,0.0684431865811348,-0.32650330662727356,-0.114116370677948
1687353404509445000,20.580445068359374,0.17283903062343597,-0.41172438859939575,-0.1982721984386444
1687353404529557200,20.60055712890625,0.1909485012292862,-0.5374255180358887,-0.18122798204421997
1687353404549669400,20.62066943359375,0.15472954511642456,-0.5608612895011902,-0.10985531657934189
1687353404569781800,20.64078173828125,0.16325165331363678,-0.636495053768158,-0.1045289933681488
1687353404589894000,20.660893798828123,0.19201377034187317,-0.8538088202476501,0.0062584239058196545
1687353404610006300,20.68100634765625,0.2047969400882721,-1.2085416316986084,0.24487747251987457
1687353404630118400,20.701118408203126,0.23888537287712097,-1.6943018436431885,0.5484775900840759
1687353404650230800,20.721230712890623,0.2900180220603943,-2.1960411071777344,0.7849661707878113
1687353404670343000,20.741343017578124,0.3635212182998657,-2.7169549465179443,0.898949384689331
1687353404690455000,20.761455078125,0.48922231793403625,-3.269826650619507,0.9767135977745056
1687353404710567400,20.7815673828125,0.6958834528923035,-3.418963670730591,0.9032104015350342
1687353404730679600,20.801679443359376,0.7374287843704224,-3.0482518672943115,0.7593998312950134
1687353404750792000,20.8217919921875,0.4689823091030121,-2.8192203044891357,0.7199850678443909
1687353404770904000,20.841904052734375,0.07163897901773453,-3.328416347503662,0.9127978086471558
1687353404791016400,20.862016357421876,-0.3118559420108795,-4.238151550292969,1.311206340789795
1687353404811128600,20.882128662109373,-0.4918854832649231,-4.489553451538086,1.5466296672821045
1687353404831240700,20.90224072265625,-0.5760413408279419,-3.730020523071289,1.4390380382537842
1687353404851353000,20.92235302734375,-0.6527402997016907,-2.6466474533081055,1.029976725578308
1687353404871465200,20.94246533203125,-0.6239781975746155,-1.780588150024414,0.5026713013648987
1687353404891577600,20.96257763671875,-0.6143907904624939,-1.3012195825576782,0.04780370742082596
1687353404911689700,20.982689697265624,-0.6729803085327148,-1.076448917388916,-0.2941459119319916
1687353404931802000,21.002802001953125,-0.844487726688385,-1.1201246976852417,-0.4155859649181366
1687353404951914200,21.022914306640626,-1.0053426027297974,-1.4524869918823242,-0.22916483879089355
1687353404972026600,21.043026611328123,-1.074584722518921,-1.7923060655593872,0.18309219181537628
1687353404992138800,21.063138671875,-1.0948246717453003,-2.0767314434051514,0.6358292102813721
1687353405012251000,21.0832509765625,-1.111868977546692,-2.526272773742676,1.1151978969573975
1687353405032363300,21.10336328125,-1.140631079673767,-3.164365530014038,1.6414381265640259
1687353405052475400,21.123475341796876,-1.1619362831115723,-3.6980626583099365,2.1314594745635986
1687353405072587800,21.143587890625,-1.1747194528579712,-3.869570255279541,2.367947816848755
1687353405092700000,21.163699951171875,-1.2098731994628906,-3.8280248641967773,2.312554121017456
1687353405112812300,21.183812255859376,-1.0884331464767456,-3.853591203689575,2.000432014465332
1687353405132924400,21.20392431640625,-0.9414267539978027,-4.171039581298828,1.7586171627044678
1687353405153036500,21.22403662109375,-1.0127993822097778,-4.48848819732666,1.5839139223098755
1687353405173149000,21.24414892578125,-1.1779152154922485,-4.53109884262085,1.4251896142959595
1687353405193261000,21.264260986328125,-1.2141342163085938,-3.6842143535614014,1.2675305604934692
1687353405213373400,21.28437353515625,-0.978710949420929,-2.2056283950805664,0.7572692632675171
1687353405233485600,21.304485595703124,-0.04127896577119827,-0.08681898564100266,-0.8033419251441956
1687353405253598000,21.324597900390625,3.351585626602173,4.977444171905518,-4.923781871795654
1687353405273710000,21.3447099609375,9.826257705688477,13.668930053710938,-12.326298713684082
1687353405293822200,21.364822265625,16.843149185180664,21.53483772277832,-21.181835174560547
1687353405313934600,21.3849345703125,20.849605560302734,26.635318756103516,-25.746490478515625
1687353405334046700,21.405046630859374,17.530244827270508,29.928049087524414,-15.982283592224121
1687353405354158800,21.425158935546875,9.114662170410156,17.617862701416016,6.0218024253845215
1687353405374271000,21.44527099609375,0.6277065873146057,-6.855504035949707,14.706896781921387
1687353405394383000,21.465383056640626,4.2911481857299805,-11.082469940185547,7.332076549530029
1687353405414495500,21.48549560546875,4.660794734954834,-2.9736833572387695,2.079261541366577
1687353405434607600,21.505607666015624,1.0847047567367554,-1.4812490940093994,3.0933923721313477
1687353405454719700,21.5257197265625,-0.9233172535896301,-5.037099361419678,4.083022594451904
1687353405474832000,21.545831787109375,-1.7329176664352417,-8.933833122253418,4.488887786865234
1687353405494944300,21.5659443359375,-2.6288044452667236,-11.375417709350586,5.830054759979248
1687353405515056400,21.586056396484373,-3.837878465652466,-12.569578170776367,7.7177019119262695
1687353405535168500,21.60616845703125,-5.022451877593994,-13.560273170471191,8.723310470581055
1687353405555280600,21.62628076171875,-5.752157211303711,-14.136581420898438,8.271638870239258
1687353405575393000,21.64639306640625,-5.7542877197265625,-13.587970733642578,7.140328884124756
1687353405595505200,21.666505126953126,-4.9159255027771,-11.631080627441406,5.842837810516357
1687353405615617300,21.6866171875,-3.2210910320281982,-7.96124792098999,4.293944358825684
1687353405635729400,21.7067294921875,-0.035952646285295486,-2.697780132293701,1.8267940282821655
1687353405655841500,21.726841552734374,4.630967140197754,2.347308397293091,-2.6068332195281982
1687353405675954000,21.746953857421875,8.958067893981934,5.815806865692139,-8.398672103881836
1687353405696066000,21.767066162109376,11.839606285095215,9.201214790344238,-14.469609260559082
1687353405716178200,21.78717822265625,13.72831916809082,12.43322467803955,-19.759708404541016
1687353405736290300,21.807290283203123,14.646575927734375,13.885178565979004,-22.64763832092285
1687353405756402700,21.827402587890624,13.751754760742188,15.765369415283203,-20.215641021728516
1687353405776514800,21.847514892578126,12.291277885437012,16.436485290527344,-9.984848976135254
1687353405796627000,21.867626953125,8.520244598388672,8.55992603302002,5.416732311248779
1687353405816739000,21.887739013671876,4.8024749755859375,-2.7201507091522217,13.376382827758789
1687353405836851500,21.9078515625,5.902892112731934,-4.25306510925293,10.963560104370117
1687353405856963600,21.927963623046875,8.048333168029785,1.2191942930221558,5.68198299407959
1687353405877075700,21.94807568359375,7.46882963180542,4.446943283081055,2.3466427326202393
1687353405897187800,21.968187744140625,4.3358893394470215,1.3171985149383545,3.7591822147369385
1687353405917300200,21.98830029296875,2.0295934677124023,-3.1633002758026123,5.428450584411621
1687353405937412400,22.008412353515624,1.1859047412872314,-3.850395441055298,4.26198673248291
1687353405957524500,22.0285244140625,0.48922231793403625,-1.7656744718551636,2.139981508255005
1687353405977636600,22.04863671875,-0.17550218105316162,0.4554001986980438,0.6209155321121216
1687353405997748700,22.068748779296875,-0.8775109052658081,1.2415647506713867,-0.1322258561849594
1687353406017861000,22.088861083984376,-1.3227910995483398,1.0402299165725708,-0.48376286029815674
1687353406037973200,22.10897314453125,-1.3984248638153076,0.23169484734535217,-0.6605966091156006
1687353406058085400,22.12908544921875,-1.317464828491211,-0.6141244769096375,-0.7021418809890747
1687353406078197500,22.149197509765624,-1.1257174015045166,-1.315068006515503,-0.6648576855659485
1687353406098310000,22.169309814453126,-1.1566100120544434,-1.636777639389038,-0.7245124578475952
1687353406118422000,22.189422119140627,-1.3259868621826172,-1.7411733865737915,-0.9290430545806885
1687353406138534100,22.2095341796875,-1.4282522201538086,-1.768870234489441,-1.2432957887649536
1687353406158646300,22.229646240234374,-1.3664668798446655,-1.6080154180526733,-1.5788538455963135
1687353406178758700,22.249758544921875,-1.0649973154067993,-1.2958931922912598,-1.513872742652893
1687353406198870800,22.269870849609376,-0.6048034429550171,-1.2873711585998535,-1.065396785736084
1687353406218983000,22.28998291015625,-0.17976324260234833,-1.4471606016159058,-0.566853404045105
1687353406239095000,22.310094970703126,0.1483379602432251,-1.4567480087280273,-0.2227732539176941
1687353406259207200,22.330207275390624,0.31878015398979187,-1.2532826662063599,-0.07257108390331268
1687353406279319600,22.350319580078125,0.33369383215904236,-0.9560741186141968,-0.09281109273433685
1687353406299431700,22.370431640625,0.26338642835617065,-0.6322339773178101,-0.13542163372039795
1687353406319543800,22.390543701171875,0.2090579867362976,-0.45007389783859253,-0.08748477697372437
1687353406339658200,22.410658203125,0.20373167097568512,-0.37870121002197266,0.04993423447012901
1687353406359768600,22.4307685546875,0.21544957160949707,-0.5203812718391418,0.15752586722373962
1687353406379879000,22.45087890625,0.15153375267982483,-0.7611308693885803,0.19054903090000153
1687353406399989200,22.4709892578125,0.040746334940195084,-0.9422256946563721,0.20333220064640045
1687353406420099800,22.491099853515625,-0.023169483989477158,-1.0285120010375977,0.25446486473083496
1687353406440210700,22.511210693359374,-0.025300011038780212,-0.93902987241745,0.36418700218200684
1687353406460321800,22.53132177734375,-0.02636527456343174,-1.0540783405303955,0.4163849353790283
1687353406480433400,22.551433349609376,-0.009321057237684727,-1.490836501121521,0.46645233035087585
1687353406500545000,22.571544921875,-0.040213704109191895,-2.1299946308135986,0.5218459963798523
1687353406520657200,22.5916572265625,-0.10519478470087051,-2.802175998687744,0.6241113543510437
1687353406540769500,22.61176953125,-0.22450430691242218,-3.0834054946899414,0.8840356469154358
1687353406560882200,22.631882080078125,-0.3683148920536041,-3.116428852081299,1.15461266040802
1687353406580995300,22.651995361328126,-0.513190746307373,-3.428550958633423,1.3538169860839844
1687353406601108500,22.6721083984375,-0.6484792232513428,-4.1049933433532715,1.6861791610717773
1687353406621222000,22.692221923828125,-0.8487488031387329,-4.77610969543457,2.0611519813537598
1687353406641338000,22.712338134765623,-0.9307740926742554,-5.223520278930664,2.342381477355957
1687353406661451300,22.732451171875,-0.9339699149131775,-5.681583404541016,2.6779396533966064
1687353406681563400,22.7525634765625,-1.0628668069839478,-6.137516498565674,3.249986171722412
1687353406701675500,22.772675537109375,-1.3781847953796387,-6.149234294891357,3.7250938415527344
1687353406721787600,22.79278759765625,-1.7723324298858643,-5.881853103637695,3.7432031631469727
1687353406741899800,22.812899658203126,-2.1984379291534424,-5.903158664703369,3.588740110397339
1687353406762012000,22.833011962890627,-2.4604926109313965,-6.411289215087891,3.6803526878356934
1687353406782124000,22.8531240234375,-2.6799368858337402,-7.279479026794434,4.188483715057373
1687353406802236400,22.873236328125,-2.934535026550293,-7.9101152420043945,4.900079727172852
1687353406822348500,22.8933486328125,-3.4043161869049072,-8.175365447998047,5.546694755554199
1687353406842460700,22.913460693359376,-3.8591837882995605,-8.07949161529541,5.751225471496582
1687353406862572800,22.93357275390625,-3.5374741554260254,-7.457377910614014,5.034302711486816
1687353406882685000,22.953684814453126,-2.402968406677246,-6.110884666442871,3.2723567485809326
1687353406902797000,22.973797119140624,-1.1811110973358154,-3.7491953372955322,1.1514167785644531
1687353406922909200,22.9939091796875,0.16538217663764954,-1.1520826816558838,-0.9556746482849121
1687353406943021300,23.014021240234374,1.522528052330017,0.3573959469795227,-2.4225425720214844
1687353406963133400,23.034133544921875,2.9020445346832275,1.307611107826233,-3.368496894836426
1687353406983245600,23.05424560546875,4.828041076660156,3.066361427307129,-4.853474140167236
1687353407003357700,23.074357666015626,8.025962829589844,6.180127143859863,-7.974696636199951
1687353407023469800,23.0944697265625,12.653468132019043,10.980204582214355,-13.162530899047852
1687353407043582000,23.11458203125,17.683643341064453,17.439964294433594,-20.110179901123047
1687353407063694000,23.134694091796874,20.215774536132812,22.966550827026367,-26.34303855895996
1687353407083806200,23.15480615234375,20.26584243774414,24.672039031982422,-25.442890167236328
1687353407103918300,23.17491845703125,18.891651153564453,17.398418426513672,-12.43175983428955
1687353407124030500,23.195030517578125,8.441415786743164,3.503119468688965,9.080174446105957
1687353407144142600,23.215142578125,-2.8365306854248047,-13.036164283752441,15.778552055358887
1687353407164254700,23.235254638671876,-1.3494226932525635,-14.527532577514648,10.26368236541748
1687353407184366800,23.255366943359373,3.3004531860351562,-6.732998847961426,4.5378899574279785
1687353407204479000,23.27547900390625,3.6818175315856934,0.297741174697876,2.8164238929748535
1687353407224591000,23.295591064453124,0.6990792751312256,-0.3051980435848236,3.648394823074341
1687353407244703200,23.315703125,-2.651174783706665,-5.993705749511719,4.9842352867126465
1687353407264815400,23.3358154296875,-4.1468048095703125,-9.79989242553711,5.612740993499756
1687353407284927500,23.355927490234375,-5.544430732727051,-11.132537841796875,6.831402778625488
1687353407305039600,23.37603955078125,-6.884532451629639,-12.076361656188965,7.8220977783203125
1687353407325151700,23.39615185546875,-7.41503381729126,-12.672908782958984,7.677221775054932
1687353407345263900,23.416263916015627,-6.96655797958374,-12.589818000793457,6.755768775939941
1687353407365376000,23.4363759765625,-5.068258285522461,-10.79058837890625,5.720332622528076
1687353407385488100,23.456488037109374,-2.343313694000244,-7.316763401031494,4.814858436584473
1687353407405600300,23.476600341796875,0.8119972348213196,-3.4317467212677,2.813228130340576
1687353407425712400,23.49671240234375,4.537224292755127,-0.2530001103878021,-0.9077377915382385
1687353407445824500,23.516824462890625,8.667251586914062,3.3614394664764404,-5.827125072479248
1687353407465936600,23.5369365234375,12.654533386230469,8.437420845031738,-11.559309005737305
1687353407486049000,23.557049072265624,16.0601806640625,14.269739151000977,-17.74103355407715
1687353407506161200,23.5771611328125,18.544376373291016,18.021596908569336,-20.601266860961914
1687353407526273300,23.597273193359374,18.749971389770508,20.71990966796875,-13.346821784973145
1687353407546385400,23.617385498046875,15.7523193359375,15.90172290802002,-0.41239017248153687
1687353407566497500,23.63749755859375,7.247254848480225,1.9776619672775269,13.481843948364258
1687353407586609700,23.657609619140626,3.7116448879241943,-10.135451316833496,14.23072338104248
1687353407606721800,23.6777216796875,7.087465286254883,-5.568665504455566,8.061781883239746
1687353407626834000,23.697833984375,5.831519603729248,0.39254966378211975,5.099283695220947
1687353407646946000,23.717946044921874,3.0554423332214355,0.7462171912193298,4.739224910736084
1687353407667058200,23.73805810546875,1.3552817106246948,-0.8218508958816528,3.6356115341186523
1687353407687170300,23.75817041015625,0.2878875136375427,-1.6154723167419434,1.9450381994247437
1687353407707282400,23.778282470703125,-0.48549389839172363,-1.1797795295715332,0.44834282994270325
1687353407727394600,23.79839453125,-1.1789805889129639,-0.06657897680997849,-0.3154512047767639
1687353407747506700,23.818506591796876,-1.8469008207321167,0.6375603079795837,-0.2834932804107666
1687353407767618800,23.838618896484373,-2.4253389835357666,0.5374255180358887,-0.39001965522766113
1687353407787731000,23.85873095703125,-2.5457139015197754,0.12623374164104462,-0.8960198760032654
1687353407807843000,23.878843017578124,-2.3007030487060547,-0.287088543176651,-1.534112811088562
1687353407827955200,23.898955078125,-1.7776587009429932,-0.3009369671344757,-1.642769694328308
1687353407848067300,23.9190673828125,-1.3163995742797852,0.04420844092965126,-1.2496874332427979
1687353407868179500,23.939179443359375,-0.9179909229278564,0.2785664498806,-0.7820366621017456
1687353407888291600,23.95929150390625,-0.7816371917724609,-0.0516652874648571,-0.5647228956222534
1687353407908403700,23.97940380859375,-0.6676539778709412,-0.5842971205711365,-0.5636576414108276
1687353407928515800,23.999515869140627,-0.41838228702545166,-0.7973498106002808,-0.6222470998764038
1687353407948628000,24.0196279296875,-0.09241162240505219,-0.7866972088813782,-0.5295692086219788
1687353407968740000,24.039739990234374,0.14727269113063812,-0.8538088202476501,-0.2643185555934906
1687353407988852200,24.059852294921875,0.1771000772714615,-0.8580698370933533,0.029694223776459694
1687353408008964400,24.07996435546875,0.10998847335577011,-0.6961497664451599,0.2012016773223877
1687353408029076500,24.100076416015625,0.01837579719722271,-0.5640571117401123,0.23315958678722382
1687353408049188600,24.120188720703126,-0.02210422046482563,-0.6407560706138611,0.25979116559028625
1687353408069300700,24.14030078125,-0.023169483989477158,-0.9880320429801941,0.3364901542663574
1687353408089412900,24.160412841796877,-0.002929474925622344,-1.265000581741333,0.4046670198440552
1687353408109525000,24.18052490234375,0.03435475379228592,-1.3587437868118286,0.3514038324356079
1687353408129637000,24.20063720703125,0.12809795141220093,-1.1957584619522095,0.30772802233695984
1687353408149749200,24.220749267578125,0.20692746341228485,-1.0274467468261719,0.2949448823928833
1687353408169861400,24.240861328125,0.20266640186309814,-1.0775141716003418,0.3055975139141083
1687353408189973800,24.260973876953123,0.08974846452474594,-1.2181289196014404,0.34075120091438293
1687353408210086000,24.2810859375,-0.048735812306404114,-1.2958931922912598,0.43342915177345276
1687353408230198000,24.301197998046874,-0.09773793816566467,-1.4173332452774048,0.5378249883651733
1687353408250310100,24.32131005859375,-0.04234423115849495,-1.4354428052902222,0.5964145064353943
1687353408270424800,24.3414248046875,0.001331579522229731,-1.4077459573745728,0.6060018539428711
1687353408290535400,24.361535400390625,-0.007190529722720385,-1.5973628759384155,0.6251766085624695
1687353408310646300,24.381646240234375,-0.028495801612734795,-2.0277292728424072,0.6709829568862915
1687353408330757000,24.401757080078124,-0.07110634446144104,-2.6658222675323486,0.815858781337738
1687353408350868000,24.421867919921876,-0.1435442715883255,-3.4402689933776855,1.0054757595062256
1687353408370979300,24.441979248046874,-0.11797794699668884,-3.959052324295044,1.1386337280273438
1687353408391090700,24.462090576171875,0.001331579522229731,-3.808850049972534,1.09708833694458
1687353408411202000,24.4822021484375,-0.012516847811639309,-3.06103515625,0.9127978086471558
1687353408431314000,24.50231396484375,-0.22983063757419586,-2.1257336139678955,0.6464818716049194
1687353408451426000,24.522426025390626,-0.3651190996170044,-1.3299816846847534,0.43342915177345276
1687353408471538400,24.542538330078123,-0.3747064769268036,-0.7494129538536072,0.5623260736465454
1687353408491650800,24.56265087890625,-0.35233595967292786,-0.5811012983322144,0.9394294023513794
1687353408511763700,24.582763671875,-0.42370861768722534,-1.148886799812317,1.3580780029296875
1687353408531876600,24.602876708984375,-0.5994771122932434,-2.078861951828003,1.6808528900146484
1687353408551989500,24.622989501953125,-0.6751108169555664,-2.9236161708831787,1.8385119438171387
1687353408572102700,24.6431025390625,-0.6111950278282166,-3.398723602294922,1.811880350112915
1687353408592215800,24.6632158203125,-0.593085527420044,-3.532946825027466,1.608414888381958
1687353408612329200,24.6833291015625,-0.7592666745185852,-3.5585131645202637,1.415602207183838
1687353408632441600,24.703441650390626,-1.0628668069839478,-3.3699615001678467,1.3772526979446411
1687353408652553700,24.7235537109375,-1.2567447423934937,-3.1909971237182617,1.251551628112793
1687353408672665900,24.743665771484373,-1.2727237939834595,-3.317763566970825,1.1066757440567017
1687353408692778200,24.7637783203125,-1.2013510465621948,-3.8109805583953857,1.0619347095489502
1687353408712890400,24.783890380859376,-1.1853721141815186,-4.664257049560547,1.2419642210006714
1687353408733002200,24.804002197265625,-1.3334437608718872,-5.38224458694458,1.5168023109436035
1687353408753114400,24.8241142578125,-1.6775239706039429,-5.495162487030029,1.5594128370285034
1687353408773226500,24.8442265625,-1.7819197177886963,-5.193692684173584,1.3080105781555176
1687353408793338600,24.864338623046876,-1.5933680534362793,-4.469313621520996,0.9522125124931335
1687353408813450800,24.88445068359375,-1.3494226932525635,-3.8163070678710938,0.7285071611404419
1687353408833563000,24.90456298828125,-1.1193257570266724,-3.750260591506958,0.7008103132247925
1687353408853674800,24.9246748046875,-0.9126646518707275,-3.5435996055603027,0.6326334476470947
1687353408873787000,24.944786865234374,-0.5664539337158203,-2.9736833572387695,0.3226417303085327
1687353408893899000,24.96489892578125,0.2804306447505951,-1.9435734748840332,-0.44008705019950867
1687353408914011100,24.98501123046875,2.1734042167663574,0.7771098017692566,-2.116811990737915
1687353408934123300,25.005123291015625,6.267212390899658,6.620080947875977,-6.0433735847473145
1687353408954235100,25.025235107421874,13.003939628601074,16.996814727783203,-14.921280860900879
1687353408974347300,25.04534716796875,18.84691047668457,24.922374725341797,-27.40190887451172
1687353408994459400,25.06545947265625,19.001373291015625,25.478443145751953,-32.312774658203125
1687353409014571500,25.085571533203126,17.182968139648438,17.317459106445312,-18.06593894958496
1687353409034683600,25.10568359375,8.655533790588379,2.1353209018707275,8.46871280670166
1687353409054795800,25.125795654296876,-2.353966236114502,-13.331241607666016,18.86994743347168
1687353409074907600,25.14590771484375,-0.47058022022247314,-12.828437805175781,12.470908164978027
1687353409095019800,25.166019775390627,3.355846881866455,-1.1946932077407837,3.677156925201416
1687353409115132000,25.1861318359375,3.0021791458129883,4.842155933380127,0.140481635928154
1687353409135244000,25.206244140625,0.027963170781731606,1.0775141716003418,1.6691349744796753
1687353409155356200,25.226356201171875,-2.427469491958618,-7.412637233734131,4.505931854248047
1687353409175468300,25.24646826171875,-2.895120143890381,-11.386070251464844,6.313684463500977
