time,seconds_elapsed,z,y,x
1687149075389427500,0.120427490234375,0.13404440879821777,-0.15801501274108887,0.19873905181884766
1687149075399346400,0.130346435546875,0.16327595710754395,-0.12810301780700684,-0.037764549255371094
1687149075409306000,0.14030615234375,0.11362361907958984,-0.10312867164611816,-0.2443370819091797
1687149075419309000,0.15030908203125,0.046196699142456055,-0.08089017868041992,-0.3433361053466797
1687149075429355000,0.16035498046875,-0.0127716064453125,-0.06523561477661133,-0.36156368255615234
1687149075439443200,0.170443115234375,-0.10872387886047363,-0.06477952003479004,-0.4557943344116211
1687149075449570300,0.1805703125,-0.17662453651428223,-0.05076289176940918,-0.572962760925293
1687149075459732000,0.19073193359375,-0.1601858139038086,-0.04573512077331543,-0.6003570556640625
1687149075469922600,0.200922607421875,-0.03220176696777344,-0.04460501670837402,-0.5162277221679688
1687149075480122600,0.21112255859375,0.15639853477478027,-0.025597572326660156,-0.3842744827270508
1687149075490322400,0.221322509765625,0.34890222549438477,0.022687196731567383,-0.2236785888671875
1687149075500522500,0.2315224609375,0.3629765510559082,0.0782771110534668,0.011716842651367188
1687149075510722600,0.24172265625,0.2068164348602295,0.10675311088562012,0.201812744140625
1687149075520890400,0.251890380859375,-0.046569108963012695,0.08607864379882812,0.3184928894042969
1687149075530945000,0.261945068359375,-0.3147401809692383,-0.04398012161254883,0.2971782684326172
1687149075541000000,0.272,-0.5428140163421631,-0.13973283767700195,0.16584300994873047
1687149075551054600,0.2820546875,-0.7801518440246582,-0.0710291862487793,0.013761520385742188
1687149075561109500,0.292109619140625,-0.7877099514007568,0.07142329216003418,-0.06751728057861328
1687149075571164200,0.3021640625,-0.5061337947845459,0.1818547248840332,-0.04892730712890625
1687149075581219000,0.312218994140625,-0.07724905014038086,0.3174266815185547,0.1500406265258789
1687149075591273700,0.322273681640625,0.3898770809173584,0.40487003326416016,0.47510623931884766
1687149075601328600,0.33232861328125,0.6768014430999756,0.4338247776031494,0.7900714874267578
1687149075611383600,0.342383544921875,0.8287644386291504,0.42258334159851074,1.0269298553466797
1687149075621438200,0.352438232421875,0.9500596523284912,0.43618130683898926,1.270345687866211
1687149075631493000,0.3624931640625,1.2151603698730469,0.47996044158935547,1.6245965957641602
1687149075641547800,0.3725478515625,1.7416799068450928,0.5876996517181396,2.2093544006347656
1687149075651602700,0.382602783203125,2.3638272285461426,0.7165720462799072,2.553317070007324
1687149075661657300,0.3926572265625,2.8555095195770264,0.7266981601715088,2.48873233795166
1687149075671712300,0.402712158203125,3.1181588172912598,0.636460542678833,2.1449718475341797
1687149075681767000,0.412766845703125,2.992804765701294,0.5387735366821289,1.6837148666381836
1687149075691821800,0.42282177734375,2.3997323513031006,0.5645382404327393,1.5142316818237305
1687149075701876500,0.43287646484375,1.5402846336364746,0.6540751457214355,1.6906652450561523
1687149075711931400,0.442931396484375,0.8012921810150146,0.8190479278564453,2.27773380279541
1687149075721986000,0.452986083984375,0.4107687473297119,0.9755129814147949,2.865403175354004
1687149075732041000,0.463041015625,0.34767651557922363,0.9755606651306152,3.0709362030029297
1687149075742095600,0.473095703125,0.4503507614135742,0.7783551216125488,3.2605409622192383
1687149075752150500,0.483150634765625,0.9439544677734375,0.566533088684082,3.9267425537109375
1687149075762205200,0.493205078125,1.941354751586914,0.44919586181640625,5.361278533935547
1687149075772260000,0.503260009765625,3.3011984825134277,0.3389468193054199,6.795330047607422
1687149075782315000,0.51331494140625,4.776630401611328,0.15958309173583984,7.529117584228516
1687149075792369700,0.52336962890625,5.699585914611816,-0.14940929412841797,6.843984603881836
1687149075802424600,0.533424560546875,5.326946258544922,-0.8496713638305664,4.686298370361328
1687149075812479200,0.543479248046875,3.694902181625366,-1.6587491035461426,2.088167190551758
1687149075822534100,0.5535341796875,1.5051698684692383,-2.320962905883789,-0.6042604446411133
1687149075832588800,0.5635888671875,-0.8605091571807861,-2.835690498352051,-3.438033103942871
1687149075842643700,0.573643798828125,-3.3708126544952393,-3.1223745346069336,-5.716623783111572
1687149075852698400,0.583698486328125,-5.487923622131348,-3.2691397666931152,-6.799224376678467
1687149075862753300,0.593753173828125,-6.603404998779297,-3.4045310020446777,-6.728677749633789
1687149075872808000,0.603807861328125,-6.520833492279053,-3.6574368476867676,-6.236250877380371
1687149075882862800,0.61386279296875,-5.5323381423950195,-3.8913497924804688,-5.630401611328125
1687149075892917500,0.62391748046875,-4.055440425872803,-3.8885622024536133,-4.485986709594727
1687149075902972400,0.633972412109375,-2.8574721813201904,-3.7039027214050293,-3.0081613063812256
1687149075913027000,0.644027099609375,-2.1983296871185303,-3.5203804969787598,-1.5409855842590332
1687149075923082000,0.65408203125,-1.856005311012268,-3.3265981674194336,-0.052842140197753906
1687149075933137000,0.664136962890625,-1.5261280536651611,-2.9728283882141113,1.6139426231384277
1687149075943191600,0.674191650390625,-0.6084051132202148,-2.4540328979492188,3.563732147216797
1687149075953246500,0.68424658203125,0.7489774227142334,-2.058929920196533,5.071079254150391
1687149075963301000,0.694301025390625,2.3535022735595703,-1.794236183166504,6.31467866897583
1687149075973356000,0.70435595703125,3.7306971549987793,-1.6749238967895508,7.073233604431152
1687149075983410700,0.71441064453125,4.2245049476623535,-1.8698644638061523,7.021635055541992
1687149075993465600,0.724465576171875,3.6291706562042236,-2.561249256134033,5.773844242095947
1687149076003520300,0.734520263671875,2.508023500442505,-3.4034385681152344,3.314086437225342
1687149076013575200,0.7445751953125,1.1309750080108643,-4.101975917816162,0.5387356281280518
1687149076023630000,0.754630126953125,-0.24953818321228027,-4.613574028015137,-1.3877626657485962
1687149076033685000,0.76468505859375,-0.9918774366378784,-4.995597839355469,-1.8357995748519897
1687149076043739600,0.77473974609375,-1.1237157583236694,-5.773200988769531,-1.056969404220581
1687149076053794600,0.784794677734375,-0.8548442125320435,-7.290346145629883,-0.3499561548233032
1687149076063849500,0.794849365234375,-0.9322783946990967,-9.368571281433105,0.20431268215179443
1687149076073904400,0.804904296875,-1.242584466934204,-12.620546340942383,1.3203918933868408
1687149076083959000,0.814958984375,-1.2144371271133423,-17.60310935974121,1.6341114044189453
1687149076094014000,0.825013916015625,-1.1293808221817017,-24.447364807128906,-0.6463875770568848
1687149076104068900,0.83506884765625,-0.8380188941955566,-31.02645492553711,-5.770648956298828
1687149076114123500,0.84512353515625,0.8596829175949097,-34.975460052490234,-15.033870697021484
1687149076124178400,0.855178466796875,5.255631446838379,-36.25130844116211,-30.436195373535156
1687149076134233300,0.8652333984375,11.077278137207031,-34.01649475097656,-47.624610900878906
1687149076144288300,0.875288330078125,14.072361946105957,-35.52046585083008,-56.121559143066406
1687149076154343000,0.885343017578125,8.92249870300293,-42.82990646362305,-52.18488311767578
1687149076164397800,0.895397705078125,-0.42871034145355225,-49.40214538574219,-41.177127838134766
1687149076174452700,0.90545263671875,-8.647346496582031,-56.15500259399414,-27.114892959594727
1687149076184507600,0.915507568359375,-16.300579071044922,-61.22272872924805,-8.44845962524414
1687149076194562300,0.925562255859375,-24.162395477294922,-62.970306396484375,13.34687328338623
1687149076204617200,0.9356171875,-22.61522674560547,-57.73752975463867,36.64997100830078
1687149076214672100,0.945672119140625,-9.266927719116211,-44.740989685058594,67.44068145751953
1687149076224727000,0.95572705078125,12.860034942626953,-26.170434951782227,109.99613952636719
1687149076234781700,0.96578173828125,69.7431640625,-9.71657657623291,137.79409790039062
1687149076244836600,0.975836669921875,92.28082275390625,2.0000498294830322,116.49652862548828
1687149076254891500,0.9858916015625,68.3808822631836,4.430385589599609,73.93424987792969
1687149076264946200,0.9959462890625,35.94292068481445,1.4868097305297852,41.11968231201172
1687149076275001000,1.0060009765625,15.696735382080078,7.757997512817383,18.4197998046875
1687149076285056000,1.016055908203125,5.176342010498047,16.953624725341797,2.828639030456543
1687149076295111000,1.02611083984375,0.5148322582244873,11.358588218688965,5.0628814697265625
1687149076305165600,1.03616552734375,-1.9881203174591064,4.516404628753662,9.727672576904297
1687149076315220500,1.046220458984375,-1.7780054807662964,3.414881706237793,9.97420597076416
1687149076325275400,1.056275390625,0.4864983558654785,1.308112621307373,9.141704559326172
1687149076335330300,1.066330322265625,1.8666222095489502,-3.4504599571228027,7.795604705810547
1687149076345385000,1.076385009765625,1.2656469345092773,-8.245514869689941,5.679847240447998
1687149076355439900,1.08643994140625,-0.26908862590789795,-11.975823402404785,3.5333685874938965
1687149076365494800,1.096494873046875,-1.6702983379364014,-15.599857330322266,1.546403408050537
1687149076375549700,1.1065498046875,-2.8345556259155273,-19.185991287231445,-0.7082042694091797
1687149076385604400,1.116604248046875,-3.919130802154541,-22.22189712524414,-3.4308605194091797
1687149076395659300,1.1266591796875,-4.748198986053467,-24.2723331451416,-5.956432342529297
1687149076405714200,1.136714111328125,-5.140544891357422,-25.111858367919922,-7.163900852203369
1687149076415768800,1.146768798828125,-4.775036811828613,-25.806312561035156,-6.6596174240112305
1687149076425823700,1.15682373046875,-3.7238242626190186,-28.33420753479004,-5.642515182495117
1687149076435878700,1.166878662109375,-2.5529801845550537,-34.54489517211914,-5.289314270019531
1687149076445933600,1.17693359375,-0.9659501314163208,-42.163787841796875,-11.092597007751465
1687149076455988200,1.18698828125,3.7826385498046875,-45.248435974121094,-28.119218826293945
1687149076466043100,1.197043212890625,11.724366188049316,-42.0911865234375,-49.82094192504883
1687149076476098000,1.20709814453125,17.464561462402344,-39.69095230102539,-63.89453887939453
1687149076486153000,1.217153076171875,15.703997611999512,-48.138267517089844,-61.45296096801758
1687149076496207600,1.22720751953125,8.53702163696289,-59.56827926635742,-48.45551300048828
1687149076506262500,1.237262451171875,0.5624059438705444,-66.8171615600586,-35.44023132324219
1687149076516317400,1.2473173828125,-6.2670698165893555,-73.02226257324219,-21.987173080444336
1687149076526372400,1.257372314453125,-7.0606513023376465,-77.08075714111328,0.5138609409332275
1687149076536427000,1.267427001953125,0.15440508723258972,-72.05943298339844,46.8449592590332
1687149076546482000,1.27748193359375,13.870491027832031,-49.76279067993164,116.27928924560547
1687149076556536800,1.287536865234375,31.099821090698242,-13.23595142364502,148.73797607421875
1687149076566591700,1.297591796875,34.788787841796875,13.034453392028809,141.76119995117188
1687149076576646700,1.307646728515625,22.031949996948242,11.776824951171875,93.55950927734375
1687149076586701600,1.31770166015625,0.5199846625328064,8.049354553222656,40.75521469116211
1687149076596756500,1.327756591796875,-16.06011199951172,11.894247055053711,-2.4974093437194824
1687149076606811400,1.337811279296875,-17.415441513061523,8.754681587219238,-16.859811782836914
1687149076616866300,1.3478662109375,-7.564166069030762,4.688366889953613,-11.657693862915039
1687149076626921200,1.357921142578125,4.513108730316162,5.774511814117432,-7.58748722076416
1687149076636976000,1.36797607421875,12.231202125549316,5.5300421714782715,-8.885729789733887
1687149076647031000,1.378031005859375,12.095815658569336,2.5051021575927734,-11.65902328491211
1687149076657086000,1.3880859375,6.779906749725342,-0.17569541931152344,-13.647469520568848
1687149076667140900,1.398140869140625,0.9406185746192932,-1.4224812984466553,-13.900840759277344
1687149076677195800,1.40819580078125,-3.4654057025909424,-2.3408682346343994,-12.190580368041992
1687149076687250700,1.418250732421875,-6.235891819000244,-3.0754377841949463,-9.39279556274414
1687149076697305300,1.428305419921875,-7.3725666999816895,-3.490546703338623,-6.037693023681641
1687149076707360300,1.4383603515625,-7.076625823974609,-3.4589579105377197,-2.993051052093506
1687149076717415200,1.448415283203125,-5.663341522216797,-3.0670623779296875,-0.7769289016723633
1687149076727470000,1.458469970703125,-3.475428819656372,-2.650880813598633,0.5257329940795898
1687149076737525000,1.46852490234375,-1.0037243366241455,-2.343379020690918,1.2685823440551758
1687149076747580000,1.478579833984375,1.057713270187378,-1.950979471206665,1.705216407775879
1687149076757634800,1.488634765625,2.2855851650238037,-1.3906409740447998,2.1569042205810547
1687149076767689700,1.498689697265625,2.5430362224578857,-0.9183785915374756,2.2861833572387695
1687149076777744600,1.50874462890625,1.9716767072677612,-0.6599903106689453,1.6651544570922852
1687149076787799600,1.518799560546875,1.1349035501480103,-0.5669188499450684,0.5313549041748047
1687149076797854500,1.5288544921875,0.4113059341907501,-0.5011162757873535,-0.4531126022338867
1687149076807909600,1.53890966796875,-0.03993856906890869,-0.36220335960388184,-0.8618526458740234
1687149076817964500,1.548964599609375,-0.2748292088508606,-0.13738012313842773,-0.7436389923095703
1687149076828019500,1.55901953125,-0.28553250432014465,0.21327686309814453,-0.15289974212646484
1687149076838074400,1.569074462890625,-0.17563119530677795,0.4988436698913574,0.5865306854248047
1687149076848129300,1.57912939453125,0.010437071323394775,0.6449613571166992,1.361771583557129
1687149076858184200,1.58918408203125,0.03767922520637512,0.7984800338745117,2.309356689453125
1687149076868238800,1.59923876953125,0.0025033652782440186,0.9204139709472656,3.1476917266845703
1687149076878293800,1.609293701171875,0.07746259868144989,0.9703927040100098,3.490335464477539
1687149076888348700,1.6193486328125,0.26505690813064575,0.8717141151428223,3.2977304458618164
1687149076898403600,1.629403564453125,0.30099159479141235,0.5623457431793213,2.6047439575195312
1687149076908458200,1.639458251953125,0.24098005890846252,0.5150718688964844,1.8546228408813477
1687149076918513200,1.64951318359375,0.15388357639312744,0.716956615447998,1.1653203964233398
1687149076928568000,1.659568115234375,0.07665875554084778,0.8277373313903809,0.43476009368896484
1687149076938623000,1.669623046875,-0.041469961404800415,0.7099933624267578,-0.1581897735595703
1687149076948677600,1.679677734375,-0.15528428554534912,0.41610002517700195,-0.6492977142333984
1687149076958732500,1.689732666015625,-0.28591954708099365,0.16399240493774414,-1.0547380447387695
1687149076968787500,1.699787353515625,-0.42075401544570923,0.10189104080200195,-1.3755054473876953
1687149076978842000,1.709842041015625,-0.4840928018093109,0.22425031661987305,-1.4837794303894043
1687149076988897000,1.71989697265625,-0.48466381430625916,0.31995677947998047,-1.390096664428711
1687149076998952000,1.729951904296875,-0.6228675842285156,0.2841472625732422,-1.319289207458496
1687149077009006800,1.7400068359375,-0.7407167553901672,0.18857908248901367,-1.056859016418457
1687149077019061500,1.7500615234375,-0.7672703862190247,0.1542658805847168,-0.578669548034668
1687149077029116400,1.760116455078125,-0.9137839674949646,0.3197956085205078,-0.012659072875976562
1687149077039171300,1.77017138671875,-1.1842975616455078,0.5793766975402832,0.5237836837768555
1687149077049226200,1.780226318359375,-1.4513955116271973,0.6496181488037109,0.8650703430175781
1687149077059281000,1.790281005859375,-1.6552245616912842,0.5379848480224609,1.0306272506713867
1687149077069335800,1.800335693359375,-1.7192344665527344,0.5836420059204102,1.2547407150268555
1687149077079390700,1.810390625,-1.5336356163024902,0.7559938430786133,1.4995498657226562
1687149077089445600,1.820445556640625,-1.153594732284546,0.9213671684265137,1.774357795715332
1687149077099500300,1.830500244140625,-0.7125112414360046,0.9798121452331543,2.169562339782715
1687149077109555200,1.84055517578125,-0.41084161400794983,1.0924673080444336,2.780533790588379
1687149077119610000,1.850610107421875,-0.23155733942985535,1.317324161529541,3.317514419555664
1687149077129664800,1.860664794921875,-0.14105066657066345,1.5435247421264648,3.6100778579711914
1687149077139719700,1.8707197265625,-0.11951292306184769,1.8347625732421875,4.225618362426758
1687149077149774600,1.880774658203125,-0.18387579917907715,2.1497230529785156,5.273526191711426
1687149077159829500,1.89082958984375,-0.1868627667427063,2.353013038635254,6.378990173339844
1687149077169884400,1.900884521484375,-0.1034470796585083,2.4038405418395996,7.382347106933594
1687149077179939300,1.910939208984375,-0.004880845546722412,2.425990104675293,8.381170272827148
1687149077189994200,1.920994140625,0.04866549372673035,2.4523887634277344,9.063299179077148
1687149077200049000,1.931048828125,0.12123110890388489,2.526592254638672,9.646750450134277
1687149077210103800,1.941103759765625,0.29924583435058594,2.6215782165527344,10.62227725982666
1687149077220158700,1.95115869140625,0.5550557374954224,2.3950085639953613,11.420220375061035
1687149077230213600,1.961213623046875,0.9332916140556335,1.7274203300476074,11.388622283935547
1687149077240268500,1.9712685546875,1.3825424909591675,0.7753791809082031,10.527320861816406
1687149077250323500,1.981323486328125,1.687864065170288,-0.33479785919189453,9.105266571044922
1687149077260378400,1.99137841796875,1.823252558708191,-1.616105556488037,7.124072074890137
1687149077270433300,2.001433349609375,2.0408551692962646,-2.8445844650268555,5.109812259674072
1687149077280488200,2.01148828125,2.3633365631103516,-3.8742942810058594,3.2746801376342773
1687149077290543000,2.021543212890625,2.731870174407959,-4.816472053527832,1.6931638717651367
1687149077300598000,2.031597900390625,2.9059624671936035,-5.7838335037231445,0.21125268936157227
1687149077310653000,2.04165283203125,2.7996859550476074,-6.895072937011719,-0.9652848243713379
1687149077320707800,2.051707763671875,2.427218437194824,-7.949192523956299,-2.0471627712249756
1687149077330762800,2.0617626953125,1.9520134925842285,-8.911615371704102,-2.962097406387329
1687149077340817700,2.071817626953125,1.4407672882080078,-9.997930526733398,-3.685166120529175
1687149077350872300,2.081872314453125,0.9236558079719543,-10.948417663574219,-3.9326252937316895
1687149077360927200,2.09192724609375,0.5839397311210632,-11.979244232177734,-3.684175491333008
1687149077370982100,2.101982177734375,0.274234414100647,-13.44086742401123,-3.0486769676208496
1687149077381037000,2.112037109375,0.07442677021026611,-15.712570190429688,-1.704054594039917
1687149077391092000,2.122092041015625,-0.1982930302619934,-19.289695739746094,-0.08449077606201172
1687149077401147100,2.132147216796875,-1.029084324836731,-25.10272979736328,0.848246693611145
1687149077411202000,2.1422021484375,-2.0579710006713867,-32.680694580078125,-2.6481616497039795
1687149077421257000,2.152257080078125,-1.4908859729766846,-38.018245697021484,-16.063148498535156
1687149077431312000,2.162311767578125,3.140641212463379,-34.84364700317383,-39.48303985595703
1687149077441366800,2.17236669921875,11.833380699157715,-24.969175338745117,-63.45927810668945
1687149077451421700,2.182421630859375,14.755159378051758,-28.56842803955078,-69.81444549560547
1687149077461476600,2.1924765625,7.417872905731201,-43.74993896484375,-56.3293342590332
1687149077471531800,2.20253173828125,-0.4844362735748291,-51.66703796386719,-40.86111831665039
1687149077481586700,2.212586669921875,-6.5801520347595215,-58.70988845825195,-27.248659133911133
1687149077491641600,2.2226416015625,-7.060050964355469,-66.44282531738281,-12.290284156799316
1687149077501696500,2.232696533203125,1.1507612466812134,-67.9806900024414,14.419041633605957
1687149077511751400,2.24275146484375,10.880376815795898,-61.62435531616211,59.697105407714844
1687149077521806300,2.252806396484375,22.403066635131836,-32.93540954589844,116.54414367675781
1687149077531861200,2.262861328125,43.90208053588867,1.3435752391815186,137.9318084716797
1687149077541916400,2.27291650390625,55.21270751953125,11.951167106628418,119.88933563232422
1687149077551971300,2.282971435546875,45.66486358642578,3.7724201679229736,80.60630798339844
1687149077562026200,2.293026123046875,23.856977462768555,-5.243422031402588,44.755577087402344
1687149077572081200,2.3030810546875,6.502058029174805,-1.194549560546875,11.544682502746582
1687149077582136000,2.313135986328125,-1.0593161582946777,14.12193489074707,-15.231574058532715
1687149077592191000,2.32319091796875,-1.453261375427246,15.285301208496094,-15.240291595458984
1687149077602246000,2.333245849609375,2.540027379989624,5.981070518493652,1.3817729949951172
1687149077612301000,2.343301025390625,5.529760360717773,5.480661869049072,9.429737091064453
1687149077622356000,2.35335595703125,6.651447296142578,5.16871452331543,10.663691520690918
1687149077632411000,2.363410888671875,5.054733753204346,1.439124584197998,8.580360412597656
1687149077642465800,2.3734658203125,2.1796536445617676,-2.5707597732543945,5.329290390014648
1687149077652520700,2.383520751953125,-0.7334792613983154,-5.498732566833496,1.573401927947998
1687149077662575600,2.39357568359375,-3.024061441421509,-7.629236221313477,-1.276991367340088
1687149077672630500,2.403630615234375,-4.526095867156982,-9.532238960266113,-3.1235010623931885
1687149077682685700,2.413685791015625,-5.3006744384765625,-11.070626258850098,-3.964895248413086
1687149077692740600,2.42374072265625,-5.349255561828613,-12.329350471496582,-4.065640449523926
1687149077702795500,2.43379541015625,-4.846521377563477,-13.379322052001953,-3.6892199516296387
1687149077712850400,2.443850341796875,-3.9212307929992676,-14.38409423828125,-2.863424301147461
1687149077722905300,2.4539052734375,-2.9379663467407227,-15.721841812133789,-1.5673658847808838
1687149077732960300,2.463960205078125,-2.28170108795166,-18.101287841796875,-0.5681247711181641
1687149077743015200,2.47401513671875,-2.0019330978393555,-21.956968307495117,0.4208519458770752
1687149077753070000,2.484070068359375,-1.6160976886749268,-26.79770278930664,1.3565080165863037
1687149077763125000,2.494125,-0.6003752946853638,-31.839996337890625,1.0593905448913574
1687149077773180000,2.504179931640625,1.721651554107666,-36.370452880859375,-3.4184274673461914
1687149077783234800,2.51423486328125,6.730985641479492,-40.3640251159668,-16.528335571289062
1687149077793289700,2.524289794921875,17.066259384155273,-38.90472412109375,-38.54343032836914
1687149077803344600,2.5343447265625,29.096284866333008,-29.590087890625,-63.23750305175781
1687149077813399600,2.544399658203125,29.34990882873535,-30.194534301757812,-75.6622543334961
1687149077823454200,2.5544541015625,17.653528213500977,-45.68489074707031,-63.7433967590332
1687149077833509000,2.564509033203125,5.902469158172607,-56.1759147644043,-46.78062438964844
1687149077843564000,2.57456396484375,-0.9337657690048218,-65.63860321044922,-27.527027130126953
1687149077853619000,2.584618896484375,1.3446521759033203,-72.9083251953125,-6.176026821136475
1687149077863673900,2.594673828125,9.159564971923828,-78.37145233154297,29.85457992553711
1687149077873728800,2.604728759765625,12.649869918823242,-76.11531066894531,94.61632537841797
1687149077883783700,2.61478369140625,8.946124076843262,-26.324935913085938,143.27293395996094
1687149077893838600,2.624838623046875,8.271180152893066,12.10230827331543,141.63279724121094
1687149077903893500,2.6348935546875,7.11555814743042,13.262786865234375,106.54638671875
1687149077913948400,2.644948486328125,2.0742921829223633,-4.122255802154541,62.256473541259766
1687149077924003300,2.65500341796875,0.0378381609916687,-12.21407413482666,24.503650665283203
1687149077934058200,2.665058349609375,1.2681138515472412,-3.4889776706695557,-7.3141679763793945
1687149077944113200,2.675113037109375,7.04111385345459,12.45251750946045,-28.308372497558594
1687149077954168000,2.68516796875,12.696415901184082,12.506739616394043,-26.626693725585938
1687149077964223000,2.695222900390625,10.156794548034668,3.1578779220581055,-14.078047752380371
1687149077974277600,2.705277587890625,4.996974468231201,0.9626975059509277,-9.100631713867188
1687149077984332500,2.71533251953125,2.3591079711914062,2.3601675033569336,-9.134346008300781
1687149077994387500,2.725387451171875,0.6094409823417664,2.533440113067627,-9.63563060760498
1687149078004442400,2.7354423828125,-0.8882536888122559,0.7585253715515137,-7.941848278045654
1687149078014497300,2.745497314453125,-2.2715139389038086,-0.8459615707397461,-5.4788055419921875
1687149078024552200,2.75555224609375,-3.826127767562866,-1.2554349899291992,-3.21572208404541
1687149078034607000,2.765607177734375,-5.382966995239258,-0.839388370513916,-1.2718496322631836
1687149078044662000,2.775662109375,-6.478538513183594,-0.49094057083129883,-0.0024518966674804688
1687149078054717000,2.785717041015625,-6.735919952392578,-0.48100805282592773,0.5706005096435547
1687149078064771800,2.795771728515625,-5.902494430541992,-0.6410021781921387,0.6632013320922852
1687149078074826800,2.80582666015625,-4.133329391479492,-0.6228525638580322,0.6780662536621094
1687149078084881700,2.815881591796875,-2.2610599994659424,-0.5098092555999756,0.4348163604736328
1687149078094936600,2.8259365234375,-0.7327942848205566,-0.43503379821777344,-0.008822441101074219
1687149078104991500,2.835991455078125,0.2666471600532532,-0.28808093070983887,-0.3759288787841797
1687149078115046400,2.84604638671875,0.6495444774627686,-0.14889311790466309,-0.7582168579101562
1687149078125101300,2.856101318359375,0.6831001043319702,-0.1533820629119873,-1.0754566192626953
1687149078135156000,2.866156005859375,0.6239851713180542,-0.315291166305542,-1.3916091918945312
1687149078145211000,2.8762109375,0.48625248670578003,-0.2910308837890625,-1.3789863586425781
1687149078155266000,2.88626611328125,0.360867440700531,-0.0754392147064209,-1.0820379257202148
1687149078165321000,2.896321044921875,0.3350791931152344,0.09714460372924805,-0.7259702682495117
1687149078175376000,2.9063759765625,0.39242643117904663,0.06283044815063477,-0.3977384567260742
1687149078185430800,2.9164306640625,0.3868424892425537,0.07081246376037598,0.33705615997314453
1687149078195485700,2.926485595703125,0.23214557766914368,0.2910590171813965,1.302755355834961
1687149078205540600,2.93654052734375,0.07845765352249146,0.5286459922790527,1.9621047973632812
1687149078215595500,2.946595458984375,0.031058937311172485,0.6124105453491211,2.1933937072753906
1687149078225650700,2.956650634765625,0.09465008974075317,0.47099876403808594,1.9597845077514648
1687149078235705600,2.96670556640625,0.18780580163002014,0.151688814163208,1.6285581588745117
1687149078245760500,2.976760498046875,0.2412530779838562,0.2517566680908203,1.5002679824829102
1687149078255815400,2.9868154296875,0.31523922085762024,0.7681472301483154,1.3411388397216797
1687149078265870300,2.996870361328125,0.3307660222053528,1.152669906616211,0.9935770034790039
1687149078275925200,3.00692529296875,0.15443092584609985,1.2089135646820068,0.6434545516967773
1687149078285980200,3.016980224609375,-0.2969846725463867,1.107550859451294,0.39020538330078125
1687149078296035300,3.027035400390625,-0.833823561668396,1.063840627670288,0.27635860443115234
1687149078306090200,3.03709033203125,-1.245728850364685,1.1201226711273193,0.24418926239013672
1687149078316145200,3.047145263671875,-1.4256367683410645,1.2097256183624268,0.3695688247680664
1687149078326200000,3.057199951171875,-1.2826361656188965,1.2362663745880127,0.8860874176025391
1687149078336255000,3.0672548828125,-1.0591658353805542,1.244534969329834,1.6455278396606445
1687149078346310000,3.077309814453125,-1.0822186470031738,1.4144580364227295,2.3438358306884766
1687149078356364800,3.08736474609375,-1.0959264039993286,1.6702525615692139,2.7822256088256836
1687149078366420000,3.097419921875,-1.0596624612808228,1.8463678359985352,3.1855220794677734
1687149078376475000,3.107474853515625,-1.0861990451812744,1.835606575012207,3.5485124588012695
1687149078386529800,3.11752978515625,-1.1672457456588745,1.8396761417388916,3.685257911682129
1687149078396584700,3.127584716796875,-0.9236717224121094,2.0088050365448,3.677103042602539
1687149078406639600,3.1376396484375,-0.32900989055633545,2.1447525024414062,3.6429452896118164
1687149078416694500,3.147694580078125,0.3723381757736206,2.1770718097686768,3.668275833129883
1687149078426749400,3.15774951171875,0.9848839044570923,2.0977540016174316,3.7999982833862305
1687149078436804400,3.167804443359375,1.4461032152175903,2.054270029067993,4.109698295593262
1687149078446859500,3.177859619140625,1.6569740772247314,2.0547802448272705,4.559349060058594
1687149078456914400,3.18791455078125,1.6586389541625977,2.025606632232666,5.235733985900879
1687149078466969300,3.19796923828125,1.4478257894515991,2.0043540000915527,6.212637901306152
1687149078477024300,3.208024169921875,1.0165367126464844,1.8237571716308594,7.140903472900391
1687149078487079200,3.2180791015625,0.5858820676803589,1.538038730621338,7.791585922241211
1687149078497134000,3.228134033203125,0.2285977602005005,0.9616594314575195,7.932928085327148
1687149078507189000,3.23818896484375,0.07662755250930786,0.32549524307250977,7.777983665466309
1687149078517244200,3.248244140625,0.08239662647247314,-0.26865339279174805,7.238637924194336
1687149078527299000,3.258299072265625,0.20334887504577637,-0.8550376892089844,6.555507659912109
1687149078537354000,3.26835400390625,0.24667680263519287,-1.3621110916137695,5.942670822143555
1687149078547409000,3.278408935546875,0.2647246718406677,-2.0677530765533447,5.151223182678223
1687149078557463800,3.2884638671875,0.24825429916381836,-3.036205291748047,4.170116424560547
1687149078567518700,3.298518798828125,0.2459200620651245,-4.0506134033203125,3.3286705017089844
1687149078577573600,3.30857373046875,0.34761345386505127,-4.92204475402832,3.034207344055176
1687149078587628800,3.31862890625,0.5991432666778564,-5.724876880645752,3.08304500579834
1687149078597683700,3.32868359375,0.8732478022575378,-6.869840621948242,2.762378215789795
1687149078607738600,3.338738525390625,0.9640927910804749,-8.524130821228027,1.8322844505310059
1687149078617793500,3.34879345703125,0.8430540561676025,-10.401615142822266,0.6537256240844727
1687149078627848400,3.358848388671875,0.5113803148269653,-12.320589065551758,-0.46344661712646484
1687149078637903400,3.3689033203125,0.10588566958904266,-14.523065567016602,-1.406749963760376
1687149078647958300,3.378958251953125,-0.44971489906311035,-17.47136878967285,-2.0359301567077637
1687149078658013400,3.389013427734375,-0.8969815373420715,-21.993316650390625,-2.297658920288086
1687149078668068400,3.399068359375,-0.37494540214538574,-28.871395111083984,-3.1620373725891113
1687149078678123300,3.409123291015625,2.3819739818573,-35.428871154785156,-7.134063720703125
1687149078688178200,3.41917822265625,8.749173164367676,-37.410255432128906,-15.995203971862793
1687149078698233000,3.429233154296875,17.407318115234375,-33.75708770751953,-27.344667434692383
1687149078708288000,3.4392880859375,22.906431198120117,-27.813617706298828,-40.17876434326172
1687149078718343000,3.449343017578125,20.751201629638672,-25.43575668334961,-50.24018859863281
1687149078728398000,3.459398193359375,12.63311767578125,-28.770503997802734,-53.1854133605957
1687149078738453000,3.469452880859375,3.843876838684082,-32.660484313964844,-49.00983810424805
1687149078748508000,3.4795078125,-3.891218900680542,-37.33258819580078,-40.56635284423828
1687149078758562800,3.489562744140625,-11.080327987670898,-44.71657180786133,-28.822099685668945
1687149078768617700,3.49961767578125,-14.729828834533691,-53.07992172241211,-12.550592422485352
1687149078778672600,3.509672607421875,-12.447818756103516,-58.72540283203125,10.460819244384766
1687149078788727600,3.5197275390625,-2.9588141441345215,-58.09135437011719,41.24878692626953
1687149078798782700,3.52978271484375,11.280696868896484,-42.89363479614258,94.54011535644531
1687149078808837600,3.539837646484375,36.607749938964844,-15.332568168640137,133.83795166015625
1687149078818892500,3.549892578125,70.03104400634766,3.150627851486206,120.70396423339844
1687149078828947500,3.559947509765625,72.58958435058594,6.337681293487549,75.38018798828125
1687149078839002600,3.570002685546875,49.0242919921875,-3.5555615425109863,40.75951385498047
1687149078849057500,3.5800576171875,20.05167007446289,-7.145514488220215,16.346694946289062
1687149078859112400,3.590112548828125,2.4051434993743896,4.8975725173950195,-6.519205093383789
1687149078869167600,3.600167724609375,-2.0898733139038086,13.88566780090332,-15.266789436340332
1687149078879222500,3.610222412109375,-4.533022880554199,9.234909057617188,-5.787073135375977
1687149078889277400,3.62027734375,-4.998549938201904,4.950327396392822,5.542201042175293
1687149078899332600,3.63033251953125,-3.7867841720581055,5.116758346557617,9.938984870910645
1687149078909387500,3.640387451171875,-1.6208655834197998,4.374123573303223,10.747539520263672
1687149078919442400,3.6504423828125,-0.22296380996704102,1.7153983116149902,9.91513729095459
1687149078929497600,3.66049755859375,-0.03594326972961426,-1.6145176887512207,7.67323112487793
1687149078939552500,3.670552490234375,-0.620344877243042,-4.598384857177734,4.8984270095825195
1687149078949607400,3.680607421875,-1.2947417497634888,-7.3293538093566895,2.515202522277832
1687149078959662600,3.69066259765625,-1.9247093200683594,-10.356900215148926,0.3950057029724121
1687149078969717500,3.700717529296875,-2.618107318878174,-12.790968894958496,-1.529327392578125
1687149078979772400,3.7107724609375,-3.2009618282318115,-14.16068172454834,-3.2328860759735107
1687149078989827600,3.72082763671875,-3.6643035411834717,-14.828655242919922,-4.8836894035339355
1687149078999882500,3.730882568359375,-3.6935291290283203,-15.333646774291992,-5.878944396972656
1687149079009937400,3.7409375,-3.335801362991333,-16.189573287963867,-6.115032196044922
1687149079019992600,3.75099267578125,-2.7998428344726562,-17.60979652404785,-5.775063514709473
1687149079030047500,3.761047607421875,-1.9520593881607056,-19.934200286865234,-5.288118362426758
1687149079040102400,3.771102294921875,-0.8088135719299316,-24.16497230529785,-4.951650619506836
1687149079050157600,3.781157470703125,0.5873146653175354,-30.334867477416992,-5.139545440673828
1687149079060212500,3.79121240234375,1.964298129081726,-36.59046936035156,-10.098055839538574
1687149079070267400,3.801267333984375,4.519057273864746,-40.02581024169922,-23.426984786987305
1687149079080322600,3.811322509765625,10.056611061096191,-37.49583435058594,-40.105106353759766
1687149079090377500,3.82137744140625,16.768632888793945,-32.77198791503906,-52.44234085083008
1687149079100432400,3.831432373046875,17.608924865722656,-36.538551330566406,-57.62483215332031
1687149079110487600,3.841487548828125,10.716869354248047,-42.727176666259766,-52.95405960083008
1687149079120542500,3.85154248046875,2.8109617233276367,-43.974185943603516,-38.669700622558594
1687149079130597400,3.861597412109375,-4.325380325317383,-43.66886520385742,-18.716386795043945
1687149079140652500,3.871652587890625,-9.493013381958008,-42.82642364501953,6.850273609161377
1687149079150707500,3.88170751953125,-11.590700149536133,-37.33576965332031,44.93745422363281
1687149079160762600,3.8917626953125,-8.826732635498047,-22.716249465942383,97.61888122558594
1687149079170817500,3.901817626953125,-3.853634834289551,-3.2707457542419434,122.51837158203125
1687149079180872400,3.91187255859375,-0.05374646186828613,8.982059478759766,98.42802429199219
1687149079190927600,3.921927734375,2.3740952014923096,10.165718078613281,66.28672790527344
1687149079200982500,3.931982421875,2.2896862030029297,8.16800308227539,37.180660247802734
1687149079211037400,3.942037353515625,5.067234516143799,9.207426071166992,10.275666236877441
1687149079221092400,3.95209228515625,13.775959968566895,10.126205444335938,-8.100954055786133
1687149079231147300,3.962147216796875,22.31841278076172,7.453131675720215,-13.237470626831055
1687149079241202200,3.9722021484375,23.122339248657227,5.18930721282959,-13.020484924316406
1687149079251257000,3.982257080078125,17.639190673828125,4.13897705078125,-11.398320198059082
1687149079261312300,3.992312255859375,9.65218448638916,2.8499345779418945,-9.041217803955078
1687149079271367200,4.0023671875,2.052760124206543,1.1327085494995117,-7.492062568664551
1687149079281422000,4.012422119140625,-3.441009521484375,0.004030704498291016,-5.107471466064453
1687149079291477000,4.02247705078125,-6.861344337463379,-0.4159369468688965,-2.464297294616699
1687149079301532000,4.032531982421875,-8.903127670288086,-0.6679339408874512,-0.959526538848877
1687149079311586800,4.0425869140625,-10.042401313781738,-1.086885929107666,-0.6072587966918945
1687149079321641700,4.052641845703125,-10.15834903717041,-1.2127981185913086,-0.7649145126342773
1687149079331697000,4.06269677734375,-9.020018577575684,-0.8591933250427246,-1.2536883354187012
1687149079341751800,4.072751708984375,-7.133465766906738,-0.5706477165222168,-1.7355155944824219
1687149079351806700,4.082806640625,-4.7112345695495605,-0.8388581275939941,-2.1146788597106934
1687149079361861600,4.092861572265625,-2.3871264457702637,-1.240105390548706,-2.251081943511963
1687149079371916500,4.10291650390625,-0.42373722791671753,-1.3531265258789062,-2.2962965965270996
1687149079381971500,4.112971435546875,0.91829514503479,-1.303896427154541,-2.661531448364258
1687149079392026400,4.1230263671875,1.614434003829956,-1.128096342086792,-2.6508522033691406
1687149079402081300,4.133081298828125,1.8641538619995117,-0.9410386085510254,-1.9115304946899414
1687149079412136400,4.143136474609375,1.970151662826538,-0.8361802101135254,-1.140923023223877
1687149079422191400,4.15319140625,1.8936892747879028,-0.6695914268493652,-0.7496509552001953
1687149079432246300,4.163246337890625,1.5650362968444824,-0.37413597106933594,-0.6387691497802734
1687149079442301200,4.17330126953125,1.080687165260315,-0.012163162231445312,-0.05979156494140625
1687149079452356000,4.183356201171875,0.5554446578025818,0.4314289093017578,1.189126968383789
1687149079462411000,4.193410888671875,-0.0529899075627327,0.7813935279846191,2.2984189987182617
1687149079472466000,4.2034658203125,-0.5737549662590027,0.960792064666748,2.8029069900512695
1687149079482521000,4.21352099609375,-0.9785566926002502,1.0932936668395996,2.876194953918457
1687149079492576000,4.223575927734375,-1.3285396099090576,1.451028823852539,3.016021728515625
1687149079502631000,4.233630859375,-1.4331274032592773,1.8530311584472656,3.2860288619995117
1687149079512685800,4.243685791015625,-1.3198766708374023,2.0706167221069336,3.4011898040771484
1687149079522740700,4.25374072265625,-1.1456564664840698,2.103269100189209,3.2715139389038086
1687149079532795600,4.263795654296875,-1.13826322555542,1.996025562286377,2.7487268447875977
1687149079542850600,4.2738505859375,-1.210921287536621,1.9720582962036133,2.1091814041137695
1687149079552905700,4.28390576171875,-1.1813746690750122,1.9687986373901367,1.642155647277832
1687149079562960600,4.293960693359375,-1.024366021156311,1.981241226196289,1.3736371994018555
1687149079573015600,4.304015625,-0.7214322686195374,2.0196499824523926,1.5610466003417969
1687149079583070500,4.314070556640625,-0.21045523881912231,2.032198429107666,2.0195446014404297
1687149079593125400,4.32412548828125,0.3073716163635254,1.9322834014892578,2.1187210083007812
1687149079603180300,4.33418017578125,0.5292745232582092,1.839040756225586,2.2107601165771484
1687149079613235200,4.344235107421875,0.873399555683136,2.359780788421631,2.7630739212036133
1687149079623290400,4.354290283203125,0.9956977367401123,2.736279010772705,3.737264633178711
1687149079633345300,4.36434521484375,0.7534463405609131,3.0599632263183594,4.925014495849609
1687149079643400200,4.374400146484375,0.379990816116333,3.251431465148926,6.0320587158203125
1687149079653455000,4.384455078125,-0.19334806501865387,2.8079447746276855,7.308548927307129
1687149079663510300,4.39451025390625,-0.3883135914802551,3.2597503662109375,8.275533676147461
1687149079673565200,4.404565185546875,0.09288832545280457,4.273653507232666,9.547362327575684
1687149079683620000,4.4146201171875,0.03735768795013428,3.9787378311157227,10.497958183288574
1687149079693675300,4.42467529296875,-0.06129392981529236,3.0635576248168945,11.541540145874023
1687149079703730200,4.434730224609375,0.2675574719905853,2.1084446907043457,11.9443941116333
1687149079713785000,4.44478515625,0.8018662929534912,1.4245948791503906,11.574527740478516
1687149079723840300,4.45484033203125,1.1136057376861572,0.8574495315551758,10.881658554077148
1687149079733895200,4.464895263671875,1.2720680236816406,-0.05349302291870117,10.129810333251953
1687149079743950000,4.4749501953125,1.4074605703353882,-1.5028104782104492,9.127815246582031
1687149079754005200,4.485005126953125,1.3591099977493286,-3.3596315383911133,7.513662815093994
1687149079764060200,4.49506005859375,1.4438934326171875,-4.984900951385498,5.978437900543213
1687149079774115300,4.505115234375,1.7348904609680176,-6.393831729888916,4.740577697753906
1687149079784170200,4.515170166015625,1.9396519660949707,-7.901601314544678,3.0078206062316895
1687149079794225200,4.52522509765625,1.8746192455291748,-9.385838508605957,0.7862462997436523
1687149079804280300,4.5352802734375,1.7871479988098145,-11.136212348937988,-1.1778151988983154
1687149079814335200,4.545335205078125,2.1052026748657227,-12.927105903625488,-1.9779382944107056
1687149079824390100,4.55539013671875,1.1607799530029297,-14.836299896240234,-1.7461942434310913
1687149079834445300,4.5654453125,1.0733559131622314,-17.901287078857422,-1.066580891609192
1687149079844500200,4.575500244140625,0.9941791296005249,-22.307409286499023,-0.8574284315109253
1687149079854555100,4.58555517578125,1.232455849647522,-28.96734619140625,-1.0869094133377075
1687149079864610300,4.5956103515625,1.4325239658355713,-36.329345703125,-2.8955349922180176
1687149079874665200,4.605665283203125,2.2873005867004395,-40.526241302490234,-12.233715057373047
1687149079884720000,4.61572021484375,5.232922554016113,-40.49721145629883,-32.68336486816406
1687149079894775300,4.625775390625,11.028986930847168,-34.10717010498047,-58.528865814208984
1687149079904830200,4.635830322265625,15.479450225830078,-31.73056411743164,-72.00729370117188
1687149079914885000,4.645885009765625,11.393935203552246,-43.520572662353516,-62.75651168823242
1687149079924940300,4.655940185546875,2.2864458560943604,-53.430992126464844,-46.39862823486328
1687149079934995200,4.6659951171875,-6.585500240325928,-60.41365051269531,-32.28281021118164
1687149079945050000,4.676050048828125,-12.408288955688477,-67.90230560302734,-16.683067321777344
1687149079955105300,4.686105224609375,-11.954568862915039,-71.7498779296875,9.352113723754883
1687149079965160200,4.69616015625,-5.113160610198975,-63.72868728637695,48.112003326416016
1687149079975215000,4.706215087890625,8.83476734161377,-39.32615661621094,103.43759155273438
1687149079985270300,4.716270263671875,33.706398010253906,-11.627431869506836,137.58004760742188
1687149079995325200,4.7263251953125,60.50660705566406,3.54036283493042,118.93775939941406
1687149080005380000,4.736380126953125,61.07659149169922,2.113705635070801,78.11614990234375
1687149080015435300,4.746435302734375,44.76630783081055,-4.1880574226379395,44.92156219482422
1687149080025490200,4.756490234375,25.05276870727539,0.8752527236938477,17.919384002685547
1687149080035545000,4.766545166015625,12.544343948364258,13.519133567810059,-2.1061744689941406
1687149080045600300,4.776600341796875,6.85844612121582,12.198434829711914,-3.2919487953186035
1687149080055655200,4.7866552734375,2.6443238258361816,5.7709503173828125,4.312591552734375
1687149080065710000,4.7967099609375,1.4850287437438965,5.409790992736816,8.199370384216309
1687149080075765200,4.80676513671875,3.035546064376831,5.36564302444458,9.791486740112305
1687149080085820200,4.816820068359375,4.4728193283081055,2.840850353240967,9.814104080200195
1687149080095875300,4.826875244140625,3.7943525314331055,-1.12058687210083,8.19660472869873
1687149080105930200,4.83693017578125,1.7340214252471924,-5.384640693664551,5.2083330154418945
1687149080115985200,4.846985107421875,-0.21023786067962646,-9.455899238586426,1.8317103385925293
1687149080126040300,4.857040283203125,-1.6911616325378418,-12.712575912475586,-1.1697282791137695
1687149080136095200,4.86709521484375,-2.6571545600891113,-15.204471588134766,-3.306811809539795
1687149080146150100,4.877150146484375,-3.2529804706573486,-17.550537109375,-4.840766429901123
1687149080156205300,4.887205322265625,-3.7387783527374268,-19.580724716186523,-5.9314374923706055
1687149080166260200,4.89726025390625,-3.8601303100585938,-21.57530403137207,-6.243134498596191
1687149080176315100,4.907315185546875,-3.5645291805267334,-24.930809020996094,-6.403914451599121
1687149080186370300,4.917370361328125,-2.4715182781219482,-30.521499633789062,-7.6278581619262695
1687149080196425200,4.92742529296875,0.4622947573661804,-37.41320037841797,-12.879385948181152
1687149080206480100,4.937480224609375,5.92121696472168,-42.944217681884766,-26.48393440246582
1687149080216535300,4.947535400390625,12.249679565429688,-41.601783752441406,-47.92216873168945
1687149080226590200,4.957590087890625,16.345916748046875,-36.032169342041016,-64.82867431640625
1687149080236645000,4.96764501953125,14.686209678649902,-40.5166015625,-65.715576171875
1687149080246700300,4.9777001953125,8.064400672912598,-50.58795166015625,-51.511329650878906
1687149080256755200,4.987755126953125,-0.6122890710830688,-55.49727249145508,-34.178550720214844
1687149080266810000,4.99781005859375,-7.395596027374268,-57.432159423828125,-16.272449493408203
1687149080276865300,5.007865234375,-4.8313446044921875,-56.26169204711914,9.476223945617676
1687149080286920200,5.017920166015625,4.876726150512695,-46.187923431396484,49.3995475769043
1687149080296975000,5.02797509765625,9.99371337890625,-27.952571868896484,97.3462142944336
1687149080307030300,5.0380302734375,8.786768913269043,-1.5090553760528564,124.21529388427734
1687149080317085200,5.048085205078125,6.045862674713135,12.49474811553955,102.41155242919922
1687149080327140000,5.05814013671875,0.3522123098373413,8.275622367858887,66.7570571899414
1687149080337195300,5.0681953125,-6.525515079498291,2.6626782417297363,35.53437042236328
1687149080347250200,5.078250244140625,-7.050992965698242,5.060770034790039,7.91326904296875
1687149080357305000,5.08830517578125,0.2646470069885254,8.395927429199219,-9.590456008911133
1687149080367360300,5.0983603515625,11.460919380187988,6.862677097320557,-13.772238731384277
1687149080377415200,5.108415283203125,19.903165817260742,5.712801933288574,-13.418373107910156
1687149080387470000,5.118469970703125,21.739465713500977,6.047513008117676,-12.633366584777832
1687149080397525200,5.128525146484375,17.31345558166504,4.6601243019104,-10.494403839111328
1687149080407580200,5.138580078125,10.064752578735352,2.458475112915039,-8.708534240722656
1687149080417635300,5.14863525390625,3.461188793182373,1.309640884399414,-7.209136009216309
1687149080427690200,5.158690185546875,-2.080716133117676,0.8172931671142578,-4.816891670227051
1687149080437745200,5.1687451171875,-6.553614139556885,0.6369161605834961,-1.734703540802002
1687149080447800300,5.17880029296875,-9.796480178833008,0.30939626693725586,0.8751811981201172
1687149080457855200,5.188855224609375,-11.319405555725098,-0.04210710525512695,2.373821258544922
1687149080467910100,5.19891015625,-10.922415733337402,0.024348735809326172,2.5804452896118164
1687149080477965300,5.20896533203125,-9.437553405761719,0.40981101989746094,1.4972505569458008
1687149080488020200,5.219020263671875,-6.949554920196533,0.8322396278381348,0.21897506713867188
1687149080498075100,5.2290751953125,-4.199922561645508,0.665316104888916,-0.3861980438232422
1687149080508130600,5.239130615234375,-1.8120980262756348,0.18371295928955078,-0.7082376480102539
1687149080518185700,5.249185791015625,-0.06655824184417725,-0.12518930435180664,-0.9555253982543945
1687149080528241000,5.259240966796875,1.1952041387557983,-0.19955062866210938,-1.1662931442260742
1687149080538295800,5.2692958984375,1.9499465227127075,-0.06622123718261719,-1.3709115982055664
1687149080548351000,5.27935107421875,2.247767925262451,0.2604403495788574,-1.5007333755493164
1687149080558406000,5.289406005859375,2.035238742828369,0.6277704238891602,-1.3774633407592773
1687149080568460800,5.299460693359375,1.5749740600585938,0.9710111618041992,-0.520329475402832
1687149080578516000,5.309515869140625,1.1928602457046509,1.3385429382324219,0.9900264739990234
1687149080588571000,5.31957080078125,0.8664930462837219,1.9260344505310059,2.5642881393432617
1687149080598625800,5.329625732421875,0.5219129920005798,2.5331668853759766,3.737698554992676
1687149080608681000,5.339680908203125,0.1621064841747284,2.864581346511841,4.407099723815918
1687149080618735900,5.34973583984375,-0.21639209985733032,3.0764451026916504,4.956051826477051
1687149080628790800,5.359790771484375,-0.6060499548912048,3.233288049697876,5.810762405395508
1687149080638846000,5.369845947265625,-0.8629733920097351,3.35355281829834,6.595481872558594
1687149080648900900,5.37990087890625,-0.9117768406867981,3.5187058448791504,6.806482315063477
1687149080658955800,5.389955810546875,-0.7551109194755554,3.6971206665039062,6.669454574584961
1687149080669011000,5.400010986328125,-0.5179656147956848,3.806112289428711,6.819660186767578
1687149080679065900,5.41006591796875,-0.49797046184539795,3.687005043029785,7.243304252624512
1687149080689120800,5.420120849609375,-0.9150992631912231,3.3675804138183594,7.415691375732422
1687149080699176000,5.430176025390625,-1.3746588230133057,3.221235752105713,7.591440200805664
1687149080709230800,5.44023095703125,-1.5812270641326904,3.066558361053467,8.006143569946289
1687149080719285800,5.45028564453125,-1.3862147331237793,2.666795253753662,8.66801643371582
1687149080729341000,5.4603408203125,-0.9005426168441772,2.092158317565918,9.131758689880371
1687149080739395800,5.470395751953125,-0.4277171790599823,1.7089223861694336,9.533258438110352
1687149080749451000,5.480450927734375,-0.06964335590600967,1.4559879302978516,10.051789283752441
1687149080759506000,5.490505859375,0.09713008254766464,1.1472406387329102,10.819642066955566
1687149080769560800,5.500560791015625,-0.03848674148321152,0.4909019470214844,11.59321117401123
1687149080779616000,5.510615966796875,-0.42204874753952026,-0.38095521926879883,12.376920700073242
1687149080789671000,5.5206708984375,-0.5829302072525024,-1.377967357635498,12.716024398803711
1687149080799725800,5.530725830078125,-0.403120756149292,-2.600022315979004,12.466879844665527
1687149080809781000,5.540781005859375,0.03330487012863159,-4.222456932067871,11.391162872314453
1687149080819836000,5.5508359375,0.5711727142333984,-6.219149589538574,9.318784713745117
1687149080829890800,5.560890869140625,0.8810848593711853,-8.299738883972168,6.673450469970703
1687149080839946000,5.570946044921875,1.0266802310943604,-10.053024291992188,3.976318359375
1687149080850001000,5.5810009765625,1.0826506614685059,-11.380799293518066,1.4613656997680664
1687149080860055800,5.591055908203125,1.3476381301879883,-12.451635360717773,-0.730445384979248
1687149080870111000,5.601111083984375,1.7501444816589355,-13.414085388183594,-2.649454116821289
1687149080880166000,5.611165771484375,2.0835015773773193,-14.300261497497559,-4.064975261688232
1687149080890220800,5.621220703125,2.363147020339966,-15.189760208129883,-4.93337345123291
1687149080900276000,5.63127587890625,2.3165993690490723,-16.308029174804688,-5.304039001464844
1687149080910331000,5.641330810546875,1.9980180263519287,-17.99521255493164,-5.310163974761963
1687149080920385800,5.6513857421875,1.4228929281234741,-20.092727661132812,-5.1461591720581055
1687149080930441000,5.66144091796875,0.7082901000976562,-22.381446838378906,-5.306154251098633
1687149080940496000,5.671495849609375,0.012363746762275696,-25.127567291259766,-5.815670013427734
1687149080950550800,5.68155078125,-0.36585474014282227,-28.787776947021484,-6.904491901397705
1687149080960606000,5.69160595703125,-0.2526163160800934,-33.330902099609375,-10.961981773376465
1687149080970660900,5.701660888671875,0.6995866894721985,-37.071746826171875,-19.7161808013916
1687149080980715800,5.7117158203125,4.144986152648926,-36.826141357421875,-31.15452766418457
1687149080990771000,5.72177099609375,10.396476745605469,-34.655391693115234,-42.27446746826172
1687149081000825900,5.731825927734375,14.620170593261719,-35.45475769042969,-47.930355072021484
1687149081010880800,5.741880859375,10.357438087463379,-42.005027770996094,-44.257015228271484
1687149081020936000,5.75193603515625,0.6600931882858276,-48.73993682861328,-33.25714111328125
1687149081030990800,5.761990966796875,-9.403059005737305,-53.42345428466797,-19.64297103881836
1687149081041045800,5.772045654296875,-19.90274429321289,-57.01155471801758,-6.879097938537598
1687149081051101000,5.782100830078125,-23.116853713989258,-55.4461784362793,18.239362716674805
1687149081061155800,5.79215576171875,-13.549715042114258,-40.6150016784668,60.97999572753906
1687149081071211000,5.8022109375,-0.32091307640075684,-16.382787704467773,98.92874908447266
1687149081081266000,5.812265869140625,16.40169906616211,5.855093955993652,120.2840805053711
1687149081091320800,5.82232080078125,32.729286193847656,17.852819442749023,117.64736938476562
1687149081101376000,5.8323759765625,38.29823303222656,20.01738929748535,88.87836456298828
1687149081111431000,5.842430908203125,40.29393768310547,20.926633834838867,50.4564094543457
1687149081121485800,5.85248583984375,37.35354995727539,21.23526382446289,22.583194732666016
1687149081131541000,5.862541015625,26.770368576049805,17.741548538208008,12.100284576416016
1687149081141596000,5.872595947265625,13.880282402038574,15.396595001220703,9.154397010803223
1687149081151650800,5.88265087890625,3.9391977787017822,13.460301399230957,10.080416679382324
1687149081161706000,5.8927060546875,-2.4540224075317383,9.812705993652344,11.73642349243164
1687149081171761000,5.902760986328125,-5.674898147583008,5.31395149230957,11.354887008666992
1687149081181815800,5.91281591796875,-7.039947509765625,0.4728231430053711,8.648305892944336
1687149081191871000,5.92287109375,-7.370895862579346,-4.270593643188477,5.76881742477417
1687149081201926000,5.93292578125,-7.223577499389648,-8.714428901672363,3.3761935234069824
1687149081211980800,5.942980712890625,-6.925804138183594,-12.960406303405762,1.4613242149353027
1687149081222036000,5.953035888671875,-6.484420299530029,-16.396163940429688,-0.4586939811706543
1687149081232091000,5.9630908203125,-6.047402381896973,-18.597312927246094,-2.1008071899414062
1687149081242145800,5.973145751953125,-5.613518714904785,-20.15216064453125,-3.4644501209259033
1687149081252201000,5.983200927734375,-4.9389543533325195,-21.526321411132812,-4.1914191246032715
1687149081262255900,5.993255859375,-3.926159381866455,-23.02631378173828,-4.304108142852783
1687149081272310800,6.003310791015625,-2.9350645542144775,-25.03876304626465,-3.9192206859588623
1687149081282366000,6.013365966796875,-1.7003648281097412,-28.29670524597168,-3.3711190223693848
1687149081292420900,6.0234208984375,0.38401469588279724,-32.93732452392578,-3.6325936317443848
1687149081302475800,6.033475830078125,2.8192076683044434,-37.8125,-6.012689590454102
1687149081312531000,6.043531005859375,5.455399990081787,-41.7816047668457,-14.609235763549805
1687149081322585900,6.0535859375,9.950013160705566,-42.617916107177734,-29.54543113708496
1687149081332640800,6.063640869140625,17.178058624267578,-40.62807846069336,-43.560115814208984
1687149081342696000,6.073696044921875,19.991783142089844,-42.684410095214844,-51.16401290893555
1687149081352750800,6.083750732421875,14.029279708862305,-49.86842346191406,-49.45230484008789
1687149081362805800,6.0938056640625,4.115385055541992,-57.097755432128906,-41.183433532714844
1687149081372861000,6.10386083984375,-5.750579357147217,-64.62744903564453,-30.594852447509766
1687149081382915800,6.113915771484375,-9.396876335144043,-74.42829895019531,-18.795717239379883
1687149081392971000,6.123970947265625,-2.1476311683654785,-82.4700927734375,5.749106407165527
1687149081403026000,6.13402587890625,9.179576873779297,-86.84527587890625,54.63908767700195
1687149081413080800,6.144080810546875,16.75255012512207,-68.35630798339844,130.5342254638672
1687149081423136000,6.154135986328125,17.84039878845215,-9.055736541748047,147.4027862548828
1687149081433191000,6.16419091796875,23.883386611938477,9.869227409362793,130.5821990966797
1687149081443245800,6.174245849609375,24.674232482910156,3.885962963104248,89.57881927490234
1687149081453301000,6.184301025390625,17.498777389526367,-4.530622482299805,50.043460845947266
1687149081463356000,6.19435595703125,13.153138160705566,-3.9570531845092773,17.008941650390625
1687149081473410800,6.204410888671875,10.06471061706543,8.187304496765137,-12.195398330688477
1687149081483466000,6.214466064453125,7.285180568695068,18.216768264770508,-29.48723602294922
1687149081493521000,6.22452099609375,3.8298192024230957,11.881200790405273,-23.496315002441406
1687149081503575800,6.234575927734375,-0.5555455088615417,4.138711929321289,-12.801603317260742
1687149081513631000,6.244630859375,-3.2286486625671387,3.647639036178589,-9.347926139831543
1687149081523686000,6.254685791015625,-3.6241402626037598,4.417877197265625,-7.540752410888672
1687149081533740800,6.26474072265625,-3.9256577491760254,4.127902030944824,-5.278036594390869
1687149081543796000,6.2747958984375,-5.234834671020508,3.1786181926727295,-2.732236862182617
1687149081553851000,6.284850830078125,-6.960831165313721,2.275292158126831,-0.7388954162597656
1687149081563905800,6.29490576171875,-8.480987548828125,1.3716871738433838,0.10554122924804688
1687149081573961000,6.3049609375,-9.327332496643066,0.3641529083251953,-0.012968063354492188
1687149081584016000,6.315015869140625,-9.133323669433594,-0.5564970970153809,-0.601959228515625
1687149081594071000,6.325071044921875,-7.917652606964111,-0.9279191493988037,-1.1243982315063477
1687149081604126200,6.335126220703125,-6.029073715209961,-1.0680820941925049,-1.6968994140625
1687149081614181000,6.34518115234375,-3.9033753871917725,-1.280792474746704,-1.9320874214172363
1687149081624236300,6.355236328125,-1.7477202415466309,-1.5430998802185059,-1.686671257019043
1687149081634291200,6.365291259765625,0.1271795779466629,-1.7619132995605469,-1.4496946334838867
1687149081644346400,6.375346435546875,1.8560298681259155,-1.8759204149246216,-1.304173469543457
1687149081654401300,6.3854013671875,3.456068992614746,-1.756878137588501,-1.0332412719726562
1687149081664456400,6.39545654296875,4.673135280609131,-1.4148821830749512,-0.8420963287353516
1687149081674511400,6.405511474609375,5.368946075439453,-0.9759688377380371,-0.7692375183105469
1687149081684566500,6.41556640625,5.469345569610596,-0.7233922481536865,-0.8157749176025391
1687149081694621400,6.425621337890625,4.813830852508545,-0.36791038513183594,-0.49157142639160156
1687149081704676600,6.435676513671875,3.333495616912842,0.41812944412231445,0.49809741973876953
1687149081714731800,6.445731689453125,1.4958434104919434,1.3304204940795898,1.8089103698730469
1687149081724786700,6.45578662109375,-0.05215528607368469,2.195559501647949,3.4901304244995117
1687149081734841900,6.465841796875,-0.9783053398132324,2.8756470680236816,5.644528388977051
1687149081744896800,6.475896728515625,-1.5819873809814453,3.269139528274536,7.735589981079102
1687149081754952000,6.485951904296875,-2.0325872898101807,3.6231491565704346,9.763684272766113
1687149081765006800,6.4960068359375,-2.1420435905456543,3.8551998138427734,11.662845611572266
1687149081775062000,6.50606201171875,-1.8851613998413086,3.6205058097839355,12.798128128051758
1687149081785117000,6.516116943359375,-1.317878007888794,3.2130231857299805,12.74488353729248
1687149081795172000,6.526172119140625,-0.4042050838470459,2.869328498840332,12.236531257629395
1687149081805227000,6.53622705078125,0.7996560335159302,2.5890111923217773,11.904802322387695
1687149081815282200,6.5462822265625,1.913541555404663,2.1726303100585938,11.580578804016113
1687149081825337300,6.55633740234375,2.6163461208343506,1.5109457969665527,10.770272254943848
1687149081835392300,6.566392333984375,2.989619731903076,0.7450852394104004,9.702136993408203
1687149081845447400,6.576447509765625,3.11068058013916,-0.19140911102294922,8.353870391845703
1687149081855502300,6.58650244140625,2.948863983154297,-1.2385106086730957,6.815428256988525
1687149081865557500,6.5965576171875,2.4871528148651123,-2.2928476333618164,5.423391819000244
1687149081875612400,6.6066123046875,1.9108463525772095,-3.267703056335449,4.438317775726318
1687149081885667600,6.61666748046875,1.472461462020874,-4.237706184387207,3.8175692558288574
1687149081895722500,6.626722412109375,1.0888484716415405,-5.285070419311523,3.045775890350342
1687149081905777700,6.636777587890625,0.7872669696807861,-6.4867048263549805,1.674999713897705
1687149081915832800,6.646832763671875,0.5375779867172241,-7.5490498542785645,-0.3089027404785156
1687149081925887700,6.6568876953125,0.20644307136535645,-8.046672821044922,-2.3660848140716553
1687149081935943000,6.66694287109375,-0.07388043403625488,-7.993441581726074,-4.1929707527160645
1687149081945997800,6.676997802734375,-0.2645912766456604,-7.742958068847656,-5.26746129989624
1687149081956053000,6.687052978515625,-0.4641454219818115,-7.858424186706543,-5.591516017913818
1687149081966108000,6.69710791015625,-0.7164064645767212,-8.354435920715332,-5.262235164642334
1687149081976163000,6.7071630859375,-1.009389042854309,-8.964347839355469,-4.825335502624512
1687149081986218000,6.717218017578125,-1.2252693176269531,-9.544649124145508,-4.736721992492676
1687149081996273200,6.727273193359375,-1.306127905845642,-9.8936185836792,-4.575202941894531
1687149082006328000,6.737328125,-1.1472223997116089,-10.09200382232666,-4.32843542098999
1687149082016383000,6.747383056640625,-0.869456946849823,-10.448935508728027,-4.212562084197998
1687149082026438100,6.757438232421875,-0.6630951762199402,-11.30516242980957,-4.201517105102539
1687149082036493000,6.7674931640625,-0.5427065491676331,-12.809118270874023,-4.124751091003418
1687149082046548000,6.7775478515625,-0.38905075192451477,-15.227974891662598,-4.141451835632324
1687149082056603100,6.78760302734375,-0.012012824416160583,-18.55497932434082,-4.763700485229492
1687149082066658000,6.797657958984375,0.9398796558380127,-22.663188934326172,-7.306162357330322
1687149082076713000,6.807712890625,2.661400556564331,-27.241432189941406,-13.111916542053223
1687149082086768000,6.81776806640625,4.845035076141357,-31.21572494506836,-23.030513763427734
1687149082096823000,6.827822998046875,7.838162899017334,-32.74056625366211,-34.642974853515625
1687149082106878000,6.8378779296875,11.01047420501709,-33.62164306640625,-44.08237075805664
1687149082116933000,6.84793310546875,10.581714630126953,-37.08793258666992,-45.96807098388672
1687149082126988000,6.857988037109375,4.649388313293457,-42.934967041015625,-39.66547775268555
1687149082137043000,6.86804296875,-4.612542629241943,-47.9606819152832,-29.139751434326172
1687149082147098000,6.87809814453125,-14.387216567993164,-51.84883499145508,-15.29598331451416
1687149082157153000,6.888153076171875,-22.20850944519043,-52.97465515136719,4.591592311859131
1687149082167208200,6.898208251953125,-20.514732360839844,-47.9354133605957,30.944250106811523
1687149082177263000,6.90826318359375,-7.48543119430542,-32.85258102416992,59.58489227294922
1687149082187318000,6.918318115234375,8.710840225219727,-13.092065811157227,87.97872924804688
1687149082197373200,6.928373291015625,24.55647850036621,3.6457571983337402,108.59512329101562
1687149082207428000,6.938427978515625,29.71877098083496,9.676675796508789,104.04135131835938
1687149082217483000,6.94848291015625,27.424375534057617,10.236994743347168,82.5887680053711
1687149082227538200,6.9585380859375,25.99315071105957,12.006523132324219,60.367313385009766
1687149082237593000,6.968593017578125,24.042709350585938,13.740349769592285,40.29624938964844
1687149082247648000,6.97864794921875,19.839330673217773,12.740924835205078,23.288660049438477
1687149082257703200,6.988703125,15.118081092834473,10.567193984985352,13.516725540161133
1687149082267758000,6.998758056640625,11.40656852722168,9.564018249511719,12.041444778442383
1687149082277813000,7.00881298828125,7.841285228729248,7.9194416999816895,14.186538696289062
1687149082287868200,7.0188681640625,4.380049705505371,4.300496578216553,15.73369312286377
1687149082297923000,7.028923095703125,0.8637363910675049,-0.45641231536865234,15.001439094543457
1687149082307978000,7.03897802734375,-2.3863868713378906,-5.922987937927246,12.206443786621094
1687149082318033200,7.049033203125,-4.822839260101318,-11.8582181930542,8.307289123535156
1687149082328088000,7.059088134765625,-6.1383376121521,-17.323566436767578,5.039679527282715
1687149082338143500,7.0691435546875,-6.45472526550293,-22.226665496826172,2.2173123359680176
1687149082348198700,7.07919873046875,-5.898160934448242,-26.455793380737305,-0.28495073318481445
1687149082358254000,7.089254150390625,-4.975886344909668,-29.76006317138672,-2.563283920288086
1687149082368309000,7.09930908203125,-3.4406561851501465,-32.278263092041016,-4.011280059814453
1687149082378364000,7.109364013671875,-1.4755487442016602,-35.88384246826172,-6.172157287597656
1687149082388419000,7.119419189453125,2.8362607955932617,-40.73431396484375,-9.371164321899414
1687149082398474000,7.129473876953125,10.983512878417969,-46.036537170410156,-16.109134674072266
1687149082408529000,7.13952880859375,20.98613739013672,-47.31889343261719,-29.78738021850586
1687149082418584000,7.149583984375,26.52511215209961,-45.599239349365234,-47.928688049316406
1687149082428639000,7.159638916015625,24.574378967285156,-45.85487365722656,-58.06935501098633
1687149082438694000,7.16969384765625,16.775638580322266,-49.124114990234375,-54.264129638671875
1687149082448749000,7.1797490234375,7.1748857498168945,-54.721256256103516,-43.57124328613281
1687149082458804000,7.189803955078125,-1.2990264892578125,-60.252479553222656,-31.750991821289062
1687149082468859000,7.19985888671875,-7.906867980957031,-63.92025375366211,-19.732145309448242
1687149082478914000,7.2099140625,-10.786279678344727,-65.546630859375,-2.9174959659576416
1687149082488969000,7.219968994140625,-9.224257469177246,-62.78873062133789,20.735307693481445
1687149082499024100,7.230024169921875,2.543644428253174,-54.28133010864258,49.05762481689453
1687149082509079000,7.2400791015625,21.22378921508789,-37.47856140136719,87.43682861328125
1687149082519134000,7.250134033203125,46.080745697021484,-14.392725944519043,118.23133087158203
1687149082529189000,7.260189208984375,46.917869567871094,6.009500026702881,110.01516723632812
1687149082539244000,7.270244140625,33.37959671020508,9.445874214172363,78.72605895996094
1687149082549299000,7.280298828125,18.008962631225586,-0.9781241416931152,49.3251838684082
1687149082559354000,7.29035400390625,5.3751420974731445,-2.8970751762390137,21.46329689025879
1687149082569409000,7.300408935546875,-0.4302736222743988,5.604819297790527,-4.832902908325195
1687149082579464000,7.3104638671875,-2.600877285003662,14.829298973083496,-20.444110870361328
1687149082589519000,7.32051904296875,-2.457848072052002,10.763351440429688,-15.506831169128418
1687149082599574000,7.330573974609375,-2.2372429370880127,3.804961919784546,-6.387974739074707
1687149082609629000,7.34062890625,-1.2548222541809082,3.001134157180786,-3.616814136505127
1687149082619684000,7.35068408203125,-0.5931040644645691,3.898655891418457,-3.8536415100097656
1687149082629739000,7.360739013671875,-0.9016319513320923,3.525285243988037,-3.519981861114502
1687149082639794000,7.3707939453125,-1.7953014373779297,2.143669366836548,-2.2050375938415527
1687149082649849000,7.38084912109375,-2.9228734970092773,0.7167706489562988,-1.6190109252929688
1687149082659904000,7.390904052734375,-4.21389627456665,-0.23592519760131836,-2.577460765838623
1687149082669959000,7.400958984375,-5.301124572753906,-0.3087282180786133,-4.166794300079346
1687149082680014000,7.41101416015625,-5.883994102478027,0.13141560554504395,-5.304347515106201
1687149082690069000,7.421069091796875,-6.0146331787109375,0.5355508327484131,-5.5546875
1687149082700124000,7.4311240234375,-5.862690448760986,0.770545482635498,-4.722805023193359
1687149082710179000,7.441178955078125,-5.258876323699951,0.9093952178955078,-2.7857351303100586
1687149082720234000,7.45123388671875,-3.9232959747314453,0.940115213394165,-0.4611940383911133
1687149082730289000,7.461288818359375,-2.0800375938415527,1.1322059631347656,1.9602470397949219
1687149082740344000,7.471343994140625,-0.33227095007896423,1.5755343437194824,3.9672136306762695
1687149082750399000,7.48139892578125,1.0545800924301147,2.3840415477752686,5.520599365234375
1687149082760454000,7.491453857421875,1.9783726930618286,3.045227289199829,6.411836624145508
1687149082770509000,7.501509033203125,2.2695891857147217,3.3083794116973877,6.932229042053223
1687149082780564000,7.51156396484375,1.918900489807129,3.396501302719116,7.045461654663086
1687149082790619100,7.521619140625,1.051971435546875,3.7500498294830322,7.575252532958984
1687149082800674000,7.531674072265625,0.17106279730796814,4.3220438957214355,8.899456977844238
1687149082810729000,7.54172900390625,-0.1716064065694809,4.61457633972168,10.678789138793945
1687149082820784000,7.5517841796875,0.13380467891693115,4.438159465789795,12.555644035339355
1687149082830839000,7.561839111328125,0.6111304759979248,4.093172550201416,14.514412879943848
1687149082840894000,7.57189404296875,0.8675029277801514,3.464968204498291,15.519184112548828
1687149082850949000,7.58194921875,0.8830593228340149,2.6203975677490234,15.634459495544434
1687149082861004000,7.592004150390625,0.5224668979644775,1.4743666648864746,14.898484230041504
1687149082871059000,7.602058837890625,-0.17264559864997864,0.40722179412841797,14.46501350402832
1687149082881114000,7.612114013671875,-0.8371307849884033,-0.9721708297729492,14.129207611083984
1687149082891169000,7.6221689453125,-0.999936580657959,-2.6354758739471436,13.5684814453125
1687149082901224000,7.632223876953125,-0.6456131339073181,-4.571418762207031,12.03005599975586
1687149082911279000,7.642279052734375,0.12745815515518188,-6.309118270874023,10.276700019836426
1687149082921334000,7.652333984375,1.0540188550949097,-8.01469612121582,8.136140823364258
1687149082931389000,7.662388916015625,1.6631544828414917,-9.783757209777832,5.577175140380859
1687149082941444000,7.672444091796875,2.200025796890259,-11.408388137817383,2.5990238189697266
1687149082951499000,7.6824990234375,2.5514800548553467,-12.303302764892578,0.2488241195678711
1687149082961554000,7.692553955078125,2.586122751235962,-12.725967407226562,-1.4368507862091064
1687149082971609000,7.702609130859375,2.371363878250122,-13.05156421661377,-2.405569553375244
1687149082981664000,7.7126640625,1.9530692100524902,-13.400237083435059,-2.736818313598633
1687149082991719200,7.72271923828125,1.5018142461776733,-13.802494049072266,-2.8703103065490723
1687149083001774000,7.732774169921875,1.1475545167922974,-14.054824829101562,-2.8006465435028076
1687149083011829200,7.742829345703125,0.9163896441459656,-14.18370246887207,-2.795339345932007
1687149083021884200,7.75288427734375,0.8191726803779602,-14.215898513793945,-2.786757230758667
1687149083031939300,7.762939208984375,0.6821299195289612,-14.264245986938477,-2.9456443786621094
1687149083041994200,7.772994140625,0.4307915270328522,-14.3746919631958,-3.123255729675293
1687149083052049400,7.78304931640625,0.17798343300819397,-14.621679306030273,-3.298276424407959
1687149083062104300,7.793104248046875,-0.07818445563316345,-15.073746681213379,-3.1306796073913574
1687149083072159500,7.803159423828125,-0.38626670837402344,-16.040790557861328,-2.452491044998169
1687149083082214700,7.813214599609375,-0.6355252265930176,-18.04448699951172,-1.6715583801269531
1687149083092269600,7.82326953125,-0.7775232791900635,-21.537994384765625,-1.734736680984497
1687149083102324700,7.83332470703125,-0.598732590675354,-26.250900268554688,-3.7470245361328125
1687149083112379600,7.843379638671875,0.3734407126903534,-30.405704498291016,-9.96402359008789
1687149083122434800,7.853434814453125,3.1490089893341064,-32.382484436035156,-20.674793243408203
1687149083132489700,7.86348974609375,8.86771297454834,-32.01176452636719,-31.567285537719727
1687149083142545000,7.873544921875,15.462369918823242,-33.25753402709961,-39.65147399902344
1687149083152599800,7.883599853515625,18.691022872924805,-38.927635192871094,-41.39585876464844
1687149083162655000,7.893655029296875,16.04024887084961,-47.078147888183594,-37.259925842285156
1687149083172710000,7.9037099609375,9.062067985534668,-54.742820739746094,-31.41349983215332
1687149083182765000,7.91376513671875,-0.2553832530975342,-63.24604034423828,-23.37403678894043
1687149083192820200,7.9238203125,-12.392274856567383,-71.47329711914062,-12.064655303955078
1687149083202875100,7.933875244140625,-24.239315032958984,-76.61714935302734,9.802358627319336
1687149083212930300,7.943930419921875,-21.841672897338867,-76.91590881347656,37.14384841918945
1687149083222985200,7.953985107421875,-2.4993934631347656,-72.29074096679688,76.58171844482422
1687149083233040400,7.964040283203125,25.391427993774414,-42.8538932800293,127.24083709716797
1687149083243095300,7.97409521484375,64.18603515625,-8.432927131652832,146.5828094482422
1687149083253150500,7.984150390625,65.06375122070312,6.836596965789795,119.96125793457031
1687149083263205400,7.994205322265625,41.67998504638672,-2.523693799972534,75.67366027832031
1687149083273260500,8.004260498046875,20.259687423706055,-12.214816093444824,40.50543212890625
1687149083283315500,8.0143154296875,8.542917251586914,-7.5665106773376465,15.419404029846191
1687149083293370600,8.02437060546875,3.91803240776062,7.974218368530273,-3.1696081161499023
1687149083303425800,8.03442578125,3.095776319503784,20.01315689086914,-13.362865447998047
1687149083313480700,8.044480712890625,3.4372200965881348,11.761858940124512,-2.5001683235168457
1687149083323535600,8.05453564453125,2.7723898887634277,4.068459510803223,8.954459190368652
1687149083333590800,8.0645908203125,3.7553253173828125,3.819216728210449,13.451147079467773
1687149083343645700,8.074645751953126,5.358922481536865,4.3981499671936035,14.405620574951172
1687149083353700600,8.08470068359375,5.00320291519165,2.0287818908691406,12.909746170043945
1687149083363755800,8.094755859375,2.942488670349121,-2.7218120098114014,10.146489143371582
1687149083373810700,8.104810791015625,0.9554603099822998,-7.622734069824219,6.7178449630737305
1687149083383865600,8.114865478515625,-0.546815037727356,-11.884492874145508,3.018655776977539
1687149083393920800,8.124920654296876,-1.5209259986877441,-15.583639144897461,-0.5378975868225098
1687149083403975700,8.1349755859375,-2.030468463897705,-18.521764755249023,-3.588794469833374
1687149083414030600,8.145030517578125,-2.1815102100372314,-20.018699645996094,-5.681637287139893
1687149083424085800,8.155085693359375,-2.038808822631836,-20.846107482910156,-6.886011600494385
1687149083434140700,8.165140625,-2.0453310012817383,-22.57343292236328,-7.8492326736450195
1687149083444195600,8.175195556640626,-1.9863786697387695,-25.371963500976562,-8.077603340148926
1687149083454250800,8.185250732421874,-1.7270010709762573,-29.309598922729492,-7.9013543128967285
1687149083464305700,8.1953056640625,-1.0936360359191895,-35.21143341064453,-8.386316299438477
1687149083474360600,8.205360595703125,-0.11904621124267578,-40.97587585449219,-16.65985107421875
1687149083484415700,8.215415771484375,4.86557674407959,-40.19339370727539,-35.75374221801758
1687149083494470700,8.225470703125,14.203144073486328,-32.83405303955078,-56.240211486816406
1687149083504525600,8.235525634765626,19.460285186767578,-30.483516693115234,-65.72319030761719
1687149083514580700,8.245580810546874,14.838430404663086,-40.30416488647461,-54.979251861572266
1687149083524635600,8.2556357421875,7.868420124053955,-48.10565185546875,-37.032501220703125
1687149083534690600,8.265690673828125,1.3016910552978516,-51.607364654541016,-23.583322525024414
1687149083544745700,8.275745849609375,-4.173448085784912,-54.797576904296875,-15.034433364868164
1687149083554800600,8.285800537109376,-7.345635414123535,-58.3249626159668,-6.604422569274902
1687149083564855600,8.29585546875,-6.225227355957031,-61.89950942993164,11.324862480163574
1687149083574910700,8.30591064453125,0.015608012676239014,-63.90593719482422,55.462623596191406
1687149083584965600,8.315965576171875,7.6551690101623535,-33.483001708984375,105.26494598388672
1687149083595020800,8.326020751953125,16.461647033691406,-1.3435337543487549,121.40814971923828
1687149083605075700,8.33607568359375,25.092193603515625,4.440672874450684,103.51402282714844
1687149083615130600,8.346130615234374,29.510717391967773,-2.7756471633911133,64.46315002441406
1687149083625185800,8.356185791015625,25.43524742126465,-8.897640228271484,31.47791290283203
1687149083635240700,8.36624072265625,18.25973892211914,-7.589799880981445,8.006346702575684
1687149083645295600,8.376295654296875,13.020991325378418,3.411628246307373,-10.053461074829102
1687149083655350800,8.386350830078126,9.956915855407715,16.057199478149414,-22.421106338500977
1687149083665405700,8.39640576171875,6.217052459716797,12.276348114013672,-18.023517608642578
1687149083675460600,8.406460693359374,2.5935652256011963,3.1807541847229004,-6.7664995193481445
1687149083685515800,8.416515869140625,1.1328409910202026,1.6277287006378174,-2.655344009399414
1687149083695570700,8.42657080078125,1.9024101495742798,3.1577835083007812,-1.7617740631103516
1687149083705625600,8.43662548828125,3.1314101219177246,4.098944664001465,-1.0907678604125977
1687149083715680800,8.4466806640625,3.036259889602661,3.561800003051758,-0.28865718841552734
1687149083725735700,8.456735595703124,1.8518010377883911,2.286252737045288,0.1709918975830078
1687149083735790600,8.46679052734375,0.5155532360076904,1.092113733291626,-0.2764015197753906
1687149083745845800,8.476845703125,-0.6753225326538086,0.24656057357788086,-1.4433794021606445
1687149083755900700,8.486900634765625,-1.7712163925170898,-0.27074503898620605,-2.887425422668457
1687149083765955600,8.49695556640625,-2.6842405796051025,-0.4767570495605469,-4.387730121612549
1687149083776010800,8.5070107421875,-3.1093320846557617,-0.49060583114624023,-5.3665242195129395
1687149083786065700,8.517065673828125,-3.101001262664795,-0.5671701431274414,-5.662103652954102
1687149083796120600,8.52712060546875,-2.874765634536743,-0.656984806060791,-5.378478050231934
1687149083806175700,8.53717578125,-2.6226096153259277,-0.6636734008789062,-4.764892578125
1687149083816230700,8.547230712890626,-2.4304864406585693,-0.6200253963470459,-4.18899393081665
1687149083826285600,8.55728564453125,-2.2841708660125732,-0.3761732578277588,-3.3060145378112793
1687149083836340700,8.5673408203125,-2.1851651668548584,-0.034682273864746094,-2.0474886894226074
1687149083846395600,8.577395751953125,-2.0362067222595215,0.239851713180542,-0.9945545196533203
1687149083856450600,8.587450439453125,-1.730004072189331,0.4948546886444092,-0.22758769989013672
1687149083866505700,8.597505615234375,-1.294650673866272,0.7773070335388184,0.8593606948852539
1687149083876560600,8.607560546875,-0.850008487701416,1.468801736831665,3.065110206604004
1687149083886615600,8.617615478515624,-0.5316868424415588,2.3782355785369873,5.5001220703125
1687149083896670700,8.627670654296875,-0.2156147062778473,2.7395594120025635,6.920870780944824
1687149083906725600,8.6377255859375,0.21621492505073547,2.9341697692871094,7.965949058532715
1687149083916780800,8.64778076171875,0.796204149723053,3.3659112453460693,9.067362785339355
1687149083926835700,8.657835693359376,1.2130378484725952,3.8918583393096924,9.663168907165527
1687149083936890600,8.667890625,1.6384961605072021,4.6178975105285645,10.227850914001465
1687149083946945800,8.67794580078125,2.0858685970306396,5.2306013107299805,11.406291007995605
1687149083957000700,8.688000732421875,2.2369093894958496,5.534884452819824,12.994342803955078
1687149083967055600,8.6980556640625,1.9148032665252686,5.372015476226807,14.179388046264648
1687149083977110800,8.70811083984375,1.3253560066223145,4.813212871551514,14.685613632202148
1687149083987165700,8.718165771484376,0.4460834860801697,3.9456520080566406,14.305685043334961
1687149083997220600,8.728220703125,-0.3996732234954834,2.9252777099609375,12.828291893005371
1687149084007275800,8.73827587890625,-0.9399195909500122,1.7234082221984863,10.441932678222656
1687149084017330700,8.74833056640625,-0.9838883280754089,0.49492645263671875,8.10428237915039
1687149084027385600,8.758385498046875,-0.679970920085907,-0.7189736366271973,6.1183576583862305
1687149084037440800,8.768440673828126,-0.19005155563354492,-2.026312828063965,4.168290138244629
1687149084047495700,8.77849560546875,0.392983078956604,-3.2422780990600586,2.6090760231018066
1687149084057550600,8.788550537109375,0.7969133853912354,-4.22052001953125,1.801140308380127
1687149084067605500,8.79860546875,0.6304996013641357,-5.1732306480407715,1.344113826751709
1687149084077660400,8.808660400390625,0.11422109603881836,-6.131956577301025,1.0427360534667969
1687149084087715300,8.81871533203125,-0.4392218589782715,-7.015735149383545,1.2970170974731445
1687149084097770200,8.828770263671874,-0.7983075380325317,-7.972091197967529,1.7330279350280762
1687149084107825400,8.838825439453124,-0.9593573808670044,-9.050895690917969,1.5349907875061035
1687149084117880300,8.84888037109375,-0.9274001717567444,-10.089313507080078,0.9279341697692871
1687149084127935200,8.858935302734375,-0.7230024337768555,-10.930574417114258,0.4340476989746094
1687149084137990100,8.868990234375,-0.4606666564941406,-11.662899017333984,-0.031095504760742188
1687149084148045000,8.879045166015626,-0.2603994607925415,-12.406242370605469,-0.6022026538848877
1687149084158100000,8.889099853515624,-0.31421929597854614,-13.183099746704102,-1.3415566682815552
1687149084168155000,8.89915478515625,-0.6387182474136353,-14.13121509552002,-2.0190372467041016
1687149084178210000,8.9092099609375,-1.291364073753357,-15.277303695678711,-1.7366172075271606
1687149084188265000,8.919264892578125,-2.044013500213623,-16.761789321899414,-1.0727734565734863
1687149084198319900,8.92931982421875,-1.6627538204193115,-18.350265502929688,-2.4941654205322266
1687149084208374800,8.939374755859374,-0.9460052847862244,-20.5167179107666,-3.907456874847412
1687149084218429700,8.9494296875,0.17413723468780518,-24.234352111816406,-5.761652946472168
1687149084228484600,8.959484619140625,2.0096187591552734,-28.986812591552734,-10.288382530212402
1687149084238539500,8.96953955078125,4.7852582931518555,-32.371307373046875,-19.189729690551758
1687149084248594700,8.9795947265625,8.373974800109863,-32.110687255859375,-29.263967514038086
1687149084258649600,8.989649658203126,11.572290420532227,-30.83498764038086,-37.820106506347656
1687149084268704500,8.99970458984375,12.804963111877441,-32.00786590576172,-41.13679885864258
1687149084278759400,9.009759521484375,10.853099822998047,-36.64255142211914,-38.798912048339844
1687149084288814300,9.019814453125,6.4306535720825195,-41.486026763916016,-33.73387908935547
1687149084298869200,9.029869140625,-0.08629941940307617,-45.10112762451172,-26.68366050720215
1687149084308924200,9.039924072265626,-10.02003002166748,-48.08679962158203,-17.663375854492188
1687149084318979300,9.049979248046874,-20.29553985595703,-50.49427795410156,-5.000533103942871
1687149084329034200,9.0600341796875,-21.046098709106445,-49.42223358154297,22.493764877319336
1687149084339089200,9.070089111328125,-10.741750717163086,-38.94960021972656,60.28272247314453
1687149084349144000,9.08014404296875,2.9708573818206787,-16.589876174926758,96.14807891845703
1687149084359199000,9.090198974609375,17.508522033691406,1.9241960048675537,117.84037780761719
1687149084369254000,9.10025390625,38.06665802001953,6.436624526977539,110.40282440185547
1687149084379309000,9.11030908203125,47.11640167236328,8.501996040344238,77.27603912353516
1687149084389364000,9.120364013671875,42.62528991699219,12.855777740478516,42.751338958740234
1687149084399419000,9.1304189453125,35.132720947265625,18.390417098999023,16.122880935668945
1687149084409474000,9.14047412109375,27.19141387939453,18.314544677734375,3.8325881958007812
1687149084419529000,9.150529052734376,17.112642288208008,11.632026672363281,5.184430122375488
1687149084429584000,9.160583984375,7.617934703826904,8.53672981262207,8.393900871276855
1687149084439639000,9.17063916015625,1.3649303913116455,7.555164813995361,9.836041450500488
1687149084449694000,9.18069384765625,-1.5420548915863037,4.9721360206604,11.585382461547852
1687149084459748900,9.190748779296875,-2.3445112705230713,0.8004665374755859,12.587275505065918
1687149084469804000,9.200803955078126,-2.5540852546691895,-3.748046636581421,11.15005874633789
1687149084479859000,9.21085888671875,-2.906763792037964,-8.04023551940918,7.8749613761901855
1687149084489913900,9.220913818359374,-3.596808910369873,-12.029448509216309,4.02490758895874
1687149084499969000,9.230968994140625,-4.256768703460693,-15.76650333404541,1.0390205383300781
1687149084510024000,9.24102392578125,-4.578927040100098,-19.46377182006836,-1.1292028427124023
1687149084520078800,9.251078857421875,-4.820843696594238,-22.97310447692871,-2.770702838897705
1687149084530134000,9.261134033203126,-4.5992255210876465,-26.050004959106445,-4.393461227416992
1687149084540189000,9.27118896484375,-3.451594591140747,-29.490070343017578,-6.671708106994629
1687149084550243800,9.281243896484375,-0.26583659648895264,-33.321895599365234,-9.060266494750977
1687149084560299000,9.291299072265625,3.988647937774658,-38.144325256347656,-13.888660430908203
1687149084570354000,9.30135400390625,7.9142680168151855,-42.35767364501953,-24.159563064575195
1687149084580408800,9.311408935546876,11.084627151489258,-43.4990234375,-39.29249572753906
1687149084590464000,9.321464111328124,14.838035583496094,-40.61137390136719,-50.384281158447266
1687149084600519000,9.331518798828125,16.877099990844727,-42.161399841308594,-51.70184326171875
1687149084610574000,9.341573974609375,13.587133407592773,-48.55683898925781,-43.490966796875
1687149084620629000,9.35162890625,6.374666690826416,-52.87624740600586,-31.250465393066406
1687149084630684000,9.361683837890626,-1.439700722694397,-55.55645751953125,-20.39105224609375
1687149084640739000,9.371739013671874,-8.520570755004883,-57.34977722167969,-12.235091209411621
1687149084650794000,9.3817939453125,-12.12134075164795,-58.93729019165039,-7.221398830413818
1687149084660849000,9.391848876953125,-5.3001389503479,-60.81650924682617,2.140683174133301
1687149084670904000,9.401904052734375,5.482356071472168,-59.76667404174805,26.600872039794922
1687149084680959000,9.411958984375,15.321515083312988,-59.27324295043945,78.08732604980469
1687149084691014000,9.422013916015626,25.827503204345703,-29.170398712158203,121.57129669189453
1687149084701069000,9.432069091796874,31.209003448486328,1.7243397235870361,127.49401092529297
1687149084711124000,9.4421240234375,32.39963150024414,5.660740852355957,93.17266845703125
1687149084721179000,9.452178955078125,25.942901611328125,-4.394621849060059,54.03099822998047
1687149084731234000,9.462234130859375,17.59686851501465,-9.383094787597656,27.227067947387695
1687149084741289000,9.4722890625,12.55512523651123,-5.984477519989014,6.890328407287598
1687149084751343900,9.48234375,14.242114067077637,5.5270538330078125,-10.71214771270752
1687149084761399000,9.49239892578125,19.240053176879883,15.12444019317627,-21.721736907958984
1687149084771454000,9.502453857421875,17.41683006286621,13.351397514343262,-20.685001373291016
1687149084781508900,9.5125087890625,10.183785438537598,5.9451751708984375,-11.270674705505371
1687149084791564000,9.52256396484375,4.314076900482178,2.9678521156311035,-6.9747467041015625
1687149084801619000,9.532618896484376,0.8679139614105225,2.442409038543701,-5.707562446594238
1687149084811673900,9.542673828125,-1.7877371311187744,2.2530128955841064,-3.356004238128662
1687149084821729000,9.55272900390625,-4.71458101272583,1.9763567447662354,-0.9950485229492188
1687149084831784000,9.562783935546875,-7.288435459136963,1.3319141864776611,0.4899330139160156
1687149084841838800,9.5728388671875,-9.017210960388184,0.315765380859375,1.0865497589111328
1687149084851894000,9.58289404296875,-9.728742599487305,-0.7936482429504395,0.7820005416870117
1687149084861949000,9.592948974609374,-9.319721221923828,-1.2993232011795044,0.15943527221679688
1687149084872003800,9.60300390625,-8.240485191345215,-1.210396647453308,-0.705143928527832
1687149084882059000,9.61305908203125,-6.77832555770874,-1.0007846355438232,-1.7423763275146484
1687149084892114000,9.623114013671875,-5.159905433654785,-0.8780786991119385,-2.715338706970215
1687149084902168800,9.6331689453125,-3.723703622817993,-0.882957935333252,-3.424389362335205
1687149084912224000,9.64322412109375,-2.146411180496216,-0.5973067283630371,-3.103166103363037
1687149084922279000,9.65327880859375,-0.6928530931472778,-0.2868804931640625,-2.2874369621276855
1687149084932333800,9.663333740234375,0.4832580089569092,-0.1868443489074707,-1.453507423400879
1687149084942388700,9.673388671875,1.36590576171875,-0.03115677833557129,-0.646906852722168
1687149084952444000,9.68344384765625,1.6387320756912231,-0.24001455307006836,0.11061573028564453
1687149084962498800,9.693498779296876,1.203995943069458,-0.4107654094696045,0.9398603439331055
1687149084972553700,9.7035537109375,1.3384498357772827,0.6185038089752197,0.8181161880493164
1687149084982608600,9.713608642578125,1.4967365264892578,1.189072608947754,-0.030577659606933594
1687149084992663600,9.72366357421875,1.5986452102661133,1.4791018962860107,0.3237876892089844
1687149085002718500,9.733718505859375,1.947995901107788,1.7773194313049316,2.0610475540161133
1687149085012773400,9.7437734375,2.3376803398132324,2.095409631729126,4.226763725280762
1687149085022828500,9.75382861328125,2.331699848175049,2.5425875186920166,6.558114051818848
1687149085032883500,9.763883544921875,1.7801439762115479,3.138794183731079,9.109613418579102
1687149085042938400,9.7739384765625,0.7507652044296265,3.4377105236053467,11.324324607849121
1687149085052993300,9.7839931640625,-0.5304508805274963,3.0940208435058594,12.162818908691406
1687149085063048200,9.794048095703126,-1.6192209720611572,2.274998426437378,11.619826316833496
1687149085073103000,9.80410302734375,-1.2044837474822998,1.2322478294372559,10.423270225524902
1687149085083158000,9.814157958984374,-0.047711849212646484,0.7551803588867188,9.571587562561035
1687149085093213200,9.824213134765625,0.04093736410140991,1.573148250579834,9.034757614135742
1687149085103268000,9.83426806640625,1.1913721561431885,1.7240004539489746,8.65981388092041
1687149085113323000,9.844322998046875,1.606838345527649,0.9658370018005371,8.661151885986328
1687149085123378000,9.8543779296875,1.223304033279419,-0.4654655456542969,8.18085765838623
1687149085133432800,9.864432861328124,0.29254329204559326,-2.1099181175231934,7.6164093017578125
1687149085143487700,9.87448779296875,-0.7058582305908203,-3.5148415565490723,6.968340873718262
1687149085153542700,9.884542724609375,-1.530759334564209,-4.625510215759277,6.16678524017334
1687149085163597800,9.894597900390625,-1.840519905090332,-5.5625457763671875,5.5253214836120605
1687149085173652700,9.90465283203125,-1.635158896446228,-6.876772403717041,4.6103901863098145
1687149085183707600,9.914707763671874,-1.1831743717193604,-8.733573913574219,3.3256139755249023
1687149085193762600,9.924762451171874,-0.9406659603118896,-10.732009887695312,1.8156461715698242
1687149085203817500,9.9348173828125,-0.759980320930481,-12.416593551635742,0.39734554290771484
1687149085213872400,9.944872314453125,-0.5317974090576172,-13.648603439331055,-0.8604230880737305
1687149085223927300,9.95492724609375,0.0005595684051513672,-14.816104888916016,-1.745428204536438
1687149085233982500,9.964982421875,0.6061316728591919,-15.905208587646484,-3.377354621887207
1687149085244037400,9.975037353515624,1.3558237552642822,-16.41046905517578,-5.2546892166137695
1687149085254092300,9.98509228515625,2.1173946857452393,-16.716236114501953,-6.2937116622924805
1687149085264147200,9.995147216796875,2.799769639968872,-17.56475830078125,-5.660492420196533
1687149085274202000,10.0052021484375,3.7207911014556885,-20.1702880859375,-4.522803783416748
1687149085284257000,10.015257080078126,4.882513999938965,-24.083974838256836,-3.9145967960357666
1687149085294312000,10.02531201171875,6.644140243530273,-28.33248519897461,-4.686789512634277
1687149085304367000,10.0353671875,8.62358570098877,-31.21392250061035,-8.962695121765137
1687149085314422000,10.045422119140625,9.603761672973633,-31.51056671142578,-17.216203689575195
1687149085324477000,10.055476806640625,11.023409843444824,-29.299243927001953,-29.677038192749023
1687149085334531800,10.06553173828125,13.325691223144531,-28.08889389038086,-40.35475540161133
1687149085344586800,10.075586669921876,12.936342239379883,-31.36370849609375,-43.74753189086914
1687149085354641700,10.0856416015625,7.588246822357178,-36.97732162475586,-42.18571472167969
1687149085364696600,10.095696533203125,-0.3791332244873047,-42.8049201965332,-38.575687408447266
1687149085374751500,10.10575146484375,-7.415060043334961,-51.17808532714844,-32.816192626953125
1687149085384806700,10.115806640625,-11.533637046813965,-62.08265686035156,-22.608396530151367
1687149085394861600,10.125861572265626,-16.99508285522461,-71.87162017822266,-1.080301284790039
1687149085404916500,10.13591650390625,-24.010967254638672,-77.70870971679688,30.153419494628906
1687149085414971400,10.145971435546874,-16.52522850036621,-67.7148666381836,76.83519744873047
1687149085425026300,10.1560263671875,16.731578826904297,-41.750301361083984,127.67401123046875
1687149085435081200,10.166081298828125,92.18978118896484,-27.569217681884766,138.6975555419922
1687149085445136100,10.17613623046875,128.65069580078125,-9.03537368774414,86.69916534423828
1687149085455191300,10.18619140625,101.72786712646484,-8.981287956237793,28.338773727416992
1687149085465246200,10.19624609375,50.693206787109375,-9.644603729248047,2.248570442199707
1687149085475301000,10.206301025390625,8.04438591003418,-5.731167793273926,-3.6330904960632324
1687149085485356000,10.21635595703125,-16.412824630737305,-1.7230890989303589,-6.5707011222839355
1687149085495411000,10.226410888671875,-25.941640853881836,2.6496169567108154,-1.6202316284179688
1687149085505465900,10.2364658203125,-19.232803344726562,6.398012161254883,6.4459943771362305
1687149085515520800,10.246520751953126,-6.6897382736206055,6.89208984375,11.539188385009766
1687149085525576000,10.256575927734374,4.572553634643555,5.213223934173584,14.569778442382812
1687149085535630800,10.266630859375,11.873960494995117,2.846975326538086,13.707895278930664
1687149085545685800,10.276685791015625,13.486382484436035,-0.1427760124206543,10.759405136108398
1687149085555740700,10.28674072265625,9.577195167541504,-4.477653503417969,7.959446907043457
1687149085565795600,10.296795654296876,4.430586338043213,-9.560449600219727,4.3692755699157715
1687149085575850500,10.3068505859375,0.05654764175415039,-13.197344779968262,0.6368474960327148
1687149085585905400,10.316905517578125,-2.7464423179626465,-15.610564231872559,-2.815384864807129
1687149085595960600,10.326960693359375,-4.358422756195068,-17.635177612304688,-5.5126237869262695
1687149085606015500,10.337015380859375,-5.438819408416748,-19.515336990356445,-7.681525230407715
1687149085616070400,10.3470703125,-6.0329365730285645,-20.96039581298828,-9.278432846069336
1687149085626125300,10.357125244140626,-5.847699165344238,-22.184200286865234,-9.571783065795898
1687149085636180200,10.36718017578125,-4.613184452056885,-24.560117721557617,-8.784646987915039
1687149085646235100,10.377235107421875,-2.593238115310669,-28.95086669921875,-8.824469566345215
1687149085656290000,10.3872900390625,-0.27163922786712646,-35.1900520324707,-13.844550132751465
1687149085666345200,10.39734521484375,2.480412721633911,-38.53334045410156,-30.02671241760254
1687149085676400000,10.407400146484376,5.950662612915039,-33.620758056640625,-52.77280807495117
1687149085686455000,10.417455078125,10.178276062011719,-28.99777603149414,-66.424072265625
1687149085696510000,10.427510009765625,13.24867057800293,-37.33622360229492,-59.2971305847168
1687149085706564900,10.43756494140625,10.965585708618164,-45.01494598388672,-42.77758026123047
1687149085716619800,10.447619873046875,6.642793655395508,-47.605525970458984,-27.892728805541992
1687149085726674700,10.4576748046875,3.1495361328125,-49.132591247558594,-15.999884605407715
1687149085736729900,10.467729736328126,0.9539501667022705,-48.41215515136719,-0.3997058868408203
1687149085746784800,10.47778466796875,-0.2744414210319519,-43.61952209472656,23.908039093017578
1687149085756839700,10.487839599609375,1.1429357528686523,-34.056251525878906,55.591957092285156
1687149085766894600,10.49789453125,7.598052024841309,-18.237701416015625,90.57475280761719
1687149085776949500,10.507949462890625,13.723946571350098,-2.0083673000335693,109.52088928222656
1687149085787004700,10.518004638671876,16.425668716430664,6.800114631652832,96.7611312866211
1687149085797059600,10.5280595703125,12.782175064086914,6.779688835144043,66.44300842285156
1687149085807114500,10.538114501953125,4.875843524932861,3.5777297019958496,36.03602600097656
1687149085817169700,10.548169677734375,-1.8469634056091309,4.710853576660156,8.482243537902832
1687149085827224600,10.558224609375,-4.271418571472168,8.045005798339844,-10.637008666992188
1687149085837279500,10.568279541015626,-1.9546482563018799,5.939969062805176,-13.95968246459961
1687149085847334700,10.578334716796874,2.350940465927124,2.821765661239624,-9.18787670135498
1687149085857389600,10.5883896484375,6.637635707855225,3.121601104736328,-5.501238822937012
1687149085867444500,10.598444580078125,9.050185203552246,3.3188257217407227,-4.855912685394287
1687149085877499600,10.608499755859375,8.373058319091797,2.1978759765625,-6.277577877044678
1687149085887554600,10.618554443359375,5.759155750274658,0.6460905075073242,-8.610727310180664
1687149085897609500,10.628609375,2.946293830871582,-0.6470761299133301,-10.700968742370605
1687149085907664600,10.63866455078125,0.4906899333000183,-1.3413770198822021,-11.139627456665039
1687149085917719600,10.648719482421875,-1.656604528427124,-1.6946258544921875,-10.004828453063965
1687149085927774500,10.6587744140625,-3.559795618057251,-1.9384644031524658,-8.714056015014648
1687149085937829600,10.66882958984375,-4.8848772048950195,-2.170351982116699,-7.808022975921631
1687149085947884500,10.678884521484376,-5.649631023406982,-2.371485710144043,-7.316341400146484
1687149085957940000,10.68893994140625,-5.9175496101379395,-2.559504985809326,-7.076875686645508
1687149085967995000,10.698994873046875,-5.7808122634887695,-2.45859956741333,-6.527196884155273
1687149085978049800,10.7090498046875,-5.4437785148620605,-1.933410406112671,-5.3602800369262695
1687149085988105000,10.71910498046875,-4.917471408843994,-1.2624385356903076,-3.8670287132263184
1687149085998160000,10.729159912109376,-4.178234577178955,-0.8578755855560303,-2.0731844902038574
1687149086008214800,10.73921484375,-3.3887972831726074,-0.6376755237579346,0.1698284149169922
1687149086018269700,10.749269775390625,-2.6624155044555664,-0.21863079071044922,2.406574249267578
1687149086028324600,10.75932470703125,-1.9362008571624756,0.3289060592651367,4.023386001586914
1687149086038379500,10.769379638671875,-1.1035869121551514,0.7292256355285645,4.967106819152832
1687149086048434400,10.779434326171875,-0.4808462858200073,0.9808328151702881,5.535645484924316
1687149086058489600,10.789489501953126,-0.08576086163520813,1.2178287506103516,5.589974403381348
1687149086068544500,10.79954443359375,0.506737232208252,1.4562156200408936,5.056186676025391
1687149086078599400,10.809599365234375,1.195396065711975,1.7690231800079346,4.433243751525879
1687149086088654300,10.819654296875,1.669389009475708,2.164585828781128,4.029088973999023
1687149086098709200,10.829709228515625,1.801681399345398,2.432936191558838,3.7700119018554688
1687149086108764200,10.83976416015625,1.6993298530578613,2.709172010421753,3.598217010498047
1687149086118819000,10.849819091796874,1.5802985429763794,3.0518314838409424,3.7857484817504883
1687149086128874200,10.859874267578125,1.4046423435211182,3.4627721309661865,4.423602104187012
1687149086138929200,10.86992919921875,1.239367127418518,3.8587186336517334,5.345517158508301
1687149086148984000,10.879984130859375,1.1856520175933838,4.115360260009766,6.43745231628418
1687149086159039000,10.8900390625,1.4704071283340454,4.218975067138672,7.856467247009277
1687149086169094000,10.900093994140626,1.8840439319610596,4.298321723937988,9.6976318359375
1687149086179148800,10.910148681640624,2.403311252593994,4.299631118774414,11.746015548706055
1687149086189203700,10.92020361328125,2.789621114730835,4.032580375671387,13.597926139831543
1687149086199258600,10.930258544921875,2.9980010986328125,3.8117547035217285,14.946718215942383
1687149086209313800,10.940313720703125,3.0614817142486572,3.5081787109375,15.384819030761719
1687149086219368700,10.95036865234375,3.0593600273132324,2.816218137741089,15.1629056930542
1687149086229423600,10.960423583984374,3.1090002059936523,1.8319063186645508,14.312178611755371
1687149086239478500,10.970478515625,2.9950826168060303,0.7554483413696289,12.914684295654297
1687149086249533400,10.980533447265625,2.7730159759521484,-0.4645094871520996,11.208898544311523
1687149086259588400,10.99058837890625,2.600177526473999,-1.891916275024414,9.519641876220703
1687149086269643300,11.000643310546875,2.429468870162964,-3.5298383235931396,8.05923080444336
1687149086279698400,11.010698486328126,2.035022258758545,-5.3890604972839355,6.464547157287598
1687149086289753300,11.02075341796875,1.3833667039871216,-7.3560357093811035,4.9499616622924805
1687149086299808300,11.030808349609375,0.7788053154945374,-9.417695999145508,3.612107276916504
1687149086309863200,11.04086328125,0.34861281514167786,-11.561172485351562,1.9255447387695312
1687149086319918000,11.05091796875,0.06795607507228851,-13.451122283935547,-0.08191967010498047
1687149086329973000,11.060972900390626,-0.28640055656433105,-14.964849472045898,-2.3147194385528564
1687149086340028000,11.07102783203125,-0.8567148447036743,-16.172080993652344,-3.9359962940216064
1687149086350083000,11.0810830078125,-1.2810561656951904,-17.424230575561523,-4.5077996253967285
1687149086360138000,11.091137939453125,-1.3067737817764282,-19.355972290039062,-4.287030220031738
1687149086370193000,11.10119287109375,-1.2434604167938232,-22.11665153503418,-3.853443145751953
1687149086380247800,11.111247802734376,-0.9061925411224365,-25.03225326538086,-2.961916923522949
1687149086390302700,11.121302734375,0.059984683990478516,-28.835182189941406,-1.7146148681640625
1687149086400357600,11.131357666015624,1.5419914722442627,-33.855751037597656,-2.577018976211548
1687149086410412500,11.14141259765625,4.452194690704346,-37.153907775878906,-7.9247589111328125
1687149086420467700,11.1514677734375,8.65282154083252,-37.6938591003418,-19.96579360961914
1687149086430522600,11.161522705078125,12.301712989807129,-34.33177947998047,-38.31729507446289
1687149086440577500,11.17157763671875,15.649452209472656,-29.298786163330078,-55.02103042602539
1687149086450632400,11.181632568359374,17.60471534729004,-34.19972610473633,-58.72713088989258
1687149086460687400,11.191687255859375,12.511467933654785,-44.626224517822266,-50.542381286621094
1687149086470742300,11.2017421875,3.3774352073669434,-51.80828857421875,-38.994300842285156
1687149086480797200,11.211797119140625,-4.052037715911865,-59.03557586669922,-27.261571884155273
1687149086490852400,11.221852294921876,-8.996456146240234,-64.50180053710938,-15.974050521850586
1687149086500907300,11.2319072265625,-10.974936485290527,-66.96454620361328,1.1776471138000488
1687149086510962200,11.241962158203124,-10.378972053527832,-64.95435333251953,29.116313934326172
1687149086521017000,11.25201708984375,-4.376068115234375,-52.768211364746094,69.45075225830078
1687149086531072000,11.262072021484375,15.422083854675293,-27.490215301513672,112.56964874267578
1687149086541127000,11.272126953125,61.422080993652344,-9.534295082092285,131.7291259765625
1687149086551181800,11.282181884765626,96.19164276123047,2.2697982788085938,105.37100219726562
1687149086561237000,11.292237060546874,76.67313385009766,2.9124386310577393,66.75118255615234
1687149086571292000,11.3022919921875,38.909881591796875,-0.7302156686782837,36.38043212890625
1687149086581346800,11.312346923828125,13.871240615844727,6.296921730041504,13.77078914642334
1687149086591401700,11.322401611328125,2.242717981338501,12.672842979431152,4.265328407287598
1687149086601456600,11.33245654296875,-1.8962833881378174,9.306203842163086,8.53671932220459
1687149086611511600,11.342511474609376,-0.12702608108520508,5.699060440063477,14.659295082092285
1687149086621566500,11.35256640625,3.784132719039917,5.017329692840576,15.70645523071289
1687149086631621600,11.36262158203125,5.897866249084473,2.9231996536254883,15.018548965454102
1687149086641676500,11.372676513671875,4.375787734985352,-1.4787230491638184,12.608766555786133
1687149086651731500,11.3827314453125,0.8568753004074097,-5.893948078155518,9.100923538208008
1687149086661786400,11.392786376953126,-2.431608200073242,-9.7127046585083,5.3562541007995605
1687149086671841300,11.40284130859375,-4.928969383239746,-12.977617263793945,1.7203865051269531
1687149086681896200,11.412896240234375,-6.3094096183776855,-15.198070526123047,-0.5791611671447754
1687149086691951000,11.422951171875,-6.51459264755249,-16.850887298583984,-1.6180334091186523
1687149086702005800,11.433005859375,-6.250810623168945,-18.512054443359375,-2.1535465717315674
1687149086712060700,11.443060791015625,-5.664731502532959,-20.51103973388672,-2.466975450515747
1687149086722115600,11.453115478515626,-4.752734661102295,-22.88624382019043,-3.0071988105773926
1687149086732170500,11.46317041015625,-3.711984157562256,-25.693958282470703,-3.5783209800720215
1687149086742225400,11.473225341796875,-2.4843735694885254,-28.500335693359375,-3.2936716079711914
1687149086752280300,11.4832802734375,-0.41539907455444336,-32.02210998535156,-2.5815844535827637
1687149086762335200,11.493335205078125,2.351991653442383,-36.65262222290039,-3.137782573699951
1687149086772390100,11.50339013671875,5.435726165771484,-41.317623138427734,-10.461874008178711
1687149086782445000,11.513445068359376,9.22871208190918,-42.95832824707031,-28.704818725585938
1687149086792500000,11.5235,16.014436721801758,-38.10367965698242,-52.09560775756836
1687149086802555000,11.533554931640625,24.445465087890625,-34.71546936035156,-68.0396728515625
1687149086812609800,11.54360986328125,26.16584587097168,-45.68419647216797,-62.805458068847656
1687149086822664700,11.553664794921875,19.952123641967773,-56.917545318603516,-47.80175018310547
1687149086832719600,11.5637197265625,12.389179229736328,-63.33575439453125,-34.53389358520508
1687149086842774500,11.5737744140625,6.197493553161621,-68.91067504882812,-18.889657974243164
1687149086852829400,11.583829345703125,2.1006906032562256,-70.66645050048828,2.374171733856201
1687149086862884000,11.593884033203125,0.8964930772781372,-66.93041229248047,33.541019439697266
1687149086872939000,11.60393896484375,3.0887844562530518,-55.32508087158203,76.31878662109375
1687149086882994000,11.613993896484375,9.388643264770508,-32.7486572265625,111.15272521972656
1687149086893048800,11.624048828125,16.690128326416016,-7.105901718139648,111.7619400024414
1687149086903103700,11.634103759765624,17.293413162231445,8.220189094543457,89.81226348876953
1687149086913158700,11.64415869140625,7.754977703094482,10.251520156860352,62.7884407043457
1687149086923213600,11.654213623046875,-5.047224521636963,6.903364181518555,36.25202941894531
1687149086933268500,11.6642685546875,-15.325715065002441,5.246365547180176,13.76785945892334
1687149086943323400,11.674323486328126,-15.365034103393555,6.27982234954834,-0.9708929061889648
1687149086953378300,11.68437841796875,-6.372326374053955,6.163626670837402,-5.125360488891602
1687149086963433200,11.69443310546875,4.006625175476074,4.701417446136475,-3.4528541564941406
1687149086973488000,11.704488037109375,11.333090782165527,4.379599094390869,-2.826834201812744
1687149086983543300,11.714543212890625,14.191413879394531,4.880261421203613,-4.2136430740356445
1687149086993598200,11.72459814453125,12.124518394470215,4.781983375549316,-5.2008466720581055
1687149087003653000,11.734653076171876,7.033978462219238,3.631577968597412,-4.416189193725586
1687149087013708000,11.7447080078125,1.722385287284851,2.4639015197753906,-2.8606581687927246
1687149087023763000,11.754762939453125,-2.8779842853546143,1.943784475326538,-1.6940336227416992
1687149087033817900,11.76481787109375,-6.456643581390381,1.800563931465149,-0.35440921783447266
1687149087043872800,11.774872802734375,-8.467528343200684,1.4474468231201172,0.7621955871582031
1687149087053928000,11.784927978515626,-8.985755920410156,1.1139647960662842,0.9484758377075195
1687149087063982800,11.79498291015625,-8.121541976928711,1.1277884244918823,0.3807249069213867
1687149087074037800,11.805037841796874,-6.514240264892578,1.1875156164169312,-0.674412727355957
1687149087084092700,11.8150927734375,-4.7320709228515625,1.0539915561676025,-1.56719970703125
1687149087094147600,11.825147705078125,-3.417370080947876,0.738818883895874,-2.23537540435791
1687149087104202500,11.835202392578125,-2.5911030769348145,0.6718512773513794,-2.7456278800964355
1687149087114257400,11.84525732421875,-2.0923895835876465,0.9285011291503906,-2.853537082672119
1687149087124312300,11.855312255859374,-1.5727171897888184,1.094481348991394,-2.4636425971984863
1687149087134367500,11.865367431640625,-0.9959203004837036,1.113032341003418,-1.6722021102905273
1687149087144422400,11.87542236328125,-0.38834431767463684,1.0817962884902954,-0.857569694519043
1687149087154477300,11.885477294921875,0.14435046911239624,1.1646848917007446,-0.09686088562011719
1687149087164532200,11.8955322265625,0.4720759987831116,1.1710803508758545,0.4748106002807617
1687149087174587100,11.905587158203126,0.6074144840240479,1.1545506715774536,0.9899616241455078
1687149087184642000,11.91564208984375,0.5833026170730591,1.4568158388137817,1.983011245727539
1687149087194697000,11.925697021484375,0.3433300256729126,1.8628044128417969,3.4347524642944336
1687149087204752100,11.935752197265625,-0.03110826015472412,2.132528781890869,4.835744857788086
1687149087214807000,11.94580712890625,0.056387774646282196,2.2413063049316406,6.198486328125
1687149087224862000,11.955862060546876,0.5777971148490906,2.5721755027770996,7.807123184204102
1687149087234916900,11.965916748046874,0.9295990467071533,3.0010933876037598,9.103856086730957
1687149087244971800,11.9759716796875,1.1201978921890259,3.184631586074829,9.775498390197754
1687149087255026700,11.986026611328125,1.3490763902664185,3.343289613723755,10.12541389465332
1687149087265081600,11.99608154296875,1.5710673332214355,3.2095553874969482,10.274314880371094
1687149087275136800,12.00613671875,1.5514518022537231,3.139090061187744,10.511421203613281
1687149087285191700,12.016191650390626,1.5799003839492798,3.101771593093872,10.857842445373535
1687149087295246600,12.02624658203125,1.785149335861206,2.484950542449951,11.042214393615723
1687149087305301500,12.036301513671875,2.5240039825439453,2.2570645809173584,12.141841888427734
1687149087315356400,12.0463564453125,3.388576030731201,2.294116973876953,14.223864555358887
1687149087325411300,12.056411376953125,3.5811548233032227,1.7384824752807617,15.956523895263672
1687149087335466200,12.06646630859375,3.188077926635742,0.4537529945373535,17.048036575317383
1687149087345521400,12.076521484375,2.4910058975219727,-1.487741470336914,17.362693786621094
1687149087355576300,12.086576416015625,1.7118377685546875,-4.036842346191406,16.502830505371094
1687149087365631200,12.09663134765625,1.2112090587615967,-6.790695667266846,14.194631576538086
1687149087375686100,12.10668603515625,1.0929425954818726,-9.082706451416016,10.677085876464844
1687149087385741000,12.116740966796876,0.9646963477134705,-10.975078582763672,6.4452738761901855
1687149087395796000,12.1267958984375,0.7746396660804749,-12.56918716430664,1.9337067604064941
1687149087405851000,12.136850830078124,0.755924642086029,-13.75273323059082,-2.1813337802886963
1687149087415906000,12.146906005859375,1.170496940612793,-14.564053535461426,-5.35792350769043
1687149087425961000,12.1569609375,1.8766169548034668,-15.106878280639648,-7.300900936126709
1687149087436015900,12.167015869140625,2.398970365524292,-15.389707565307617,-7.699063301086426
1687149087446070800,12.17707080078125,2.551117420196533,-15.892738342285156,-7.350811958312988
1687149087456125700,12.187125732421874,2.3365964889526367,-16.761152267456055,-6.686425685882568
1687149087466180600,12.1971806640625,1.9806931018829346,-18.388816833496094,-5.827731132507324
1687149087476235500,12.207235595703125,1.6325527429580688,-20.940887451171875,-5.059356212615967
1687149087486290700,12.217290771484375,1.4077575206756592,-24.297199249267578,-4.1768879890441895
1687149087496345600,12.227345703125,0.6941424608230591,-28.644790649414062,-4.221712589263916
1687149087506400500,12.237400390625,-0.889646053314209,-34.100799560546875,-9.71592903137207
1687149087516455400,12.247455322265624,-0.9550600647926331,-36.92597961425781,-18.98685073852539
1687149087526510300,12.25751025390625,2.672994613647461,-35.54749298095703,-29.181304931640625
1687149087536565200,12.267565185546875,9.178905487060547,-33.70667266845703,-40.000267028808594
1687149087546620200,12.2776201171875,14.63011360168457,-34.97583770751953,-45.65603256225586
1687149087556675300,12.28767529296875,14.18653678894043,-39.835731506347656,-42.35725402832031
1687149087566730200,12.297730224609374,7.6610107421875,-45.9247932434082,-34.44786834716797
1687149087576785200,12.30778515625,-0.9489490389823914,-51.07249069213867,-26.98116111755371
1687149087586840000,12.317840087890625,-9.35657787322998,-56.12104034423828,-20.226970672607422
1687149087596895000,12.32789501953125,-13.723603248596191,-62.06441879272461,-9.700521469116211
1687149087606950000,12.337949951171876,-10.416274070739746,-65.775390625,12.851659774780273
1687149087617004800,12.3480048828125,-4.357006072998047,-61.80943298339844,50.28684616088867
1687149087627060000,12.35806005859375,8.647319793701172,-41.689632415771484,107.65766143798828
1687149087637115000,12.368114990234375,32.98411560058594,-12.323369979858398,145.8955078125
1687149087647169800,12.378169677734375,61.6244010925293,-2.7293801307678223,128.5559539794922
1687149087657224700,12.388224609375,62.22523880004883,-1.1721787452697754,81.28532409667969
1687149087667279600,12.398279541015626,46.18241500854492,-3.229465961456299,44.13600158691406
1687149087677334500,12.40833447265625,30.245683670043945,3.5892233848571777,16.123029708862305
1687149087687389400,12.418389404296875,22.36499786376953,15.827099800109863,-2.278195858001709
1687149087697444400,12.4284443359375,13.892288208007812,14.29560661315918,-1.810542106628418
1687149087707499500,12.43849951171875,4.758634090423584,6.925445079803467,7.338925361633301
1687149087717554400,12.448554443359376,-0.26968836784362793,6.2072649002075195,11.899157524108887
1687149087727609300,12.458609375,-1.0443575382232666,6.403186798095703,14.476417541503906
1687149087737664300,12.468664306640624,-0.20657634735107422,3.6571011543273926,15.996110916137695
1687149087747719200,12.47871923828125,-0.15058636665344238,-0.6408610343933105,14.90930461883545
1687149087757774000,12.488774169921875,-1.280062198638916,-5.004751205444336,11.32111644744873
1687149087767829000,12.4988291015625,-2.9373223781585693,-9.16185474395752,6.802778244018555
1687149087777884000,12.5088837890625,-4.454674243927002,-13.156929969787598,2.737372875213623
1687149087787938800,12.518938720703124,-5.54621696472168,-16.47723388671875,0.08661127090454102
1687149087797993700,12.52899365234375,-6.090229034423828,-18.796184539794922,-0.7563972473144531
1687149087808048600,12.539048583984375,-6.145819664001465,-19.899070739746094,0.20679903030395508
1687149087818103600,12.549103515625,-5.840987682342529,-20.989831924438477,1.834787130355835
1687149087828158500,12.559158447265625,-5.393211364746094,-23.02606773376465,3.066908836364746
1687149087838213400,12.56921337890625,-4.29645299911499,-26.518985748291016,4.74915075302124
1687149087848268300,12.579268310546874,-2.2117390632629395,-32.72455596923828,6.357578754425049
1687149087858323200,12.5893232421875,1.1349387168884277,-42.52836227416992,7.179006576538086
1687149087868378000,12.599378173828125,5.617781639099121,-49.37595748901367,4.3393073081970215
1687149087878433000,12.60943310546875,10.630167961120605,-49.853057861328125,-6.958102703094482
1687149087888488000,12.619488037109376,13.057967185974121,-48.153621673583984,-28.57598876953125
1687149087898542800,12.62954296875,15.133707046508789,-40.424468994140625,-55.22835159301758
1687149087908597800,12.63959765625,19.99193000793457,-36.19202423095703,-71.31039428710938
1687149087918652700,12.649652587890625,18.11720848083496,-46.951385498046875,-65.07328033447266
1687149087928707300,12.659707275390625,8.798215866088867,-57.95967102050781,-47.62374496459961
1687149087938762200,12.66976220703125,-2.4480528831481934,-66.53738403320312,-31.296205520629883
1687149087948817200,12.679817138671876,-11.859137535095215,-76.3545913696289,-17.6872501373291
1687149087958872000,12.6898720703125,-14.784106254577637,-84.789306640625,-2.2395753860473633
1687149087968927000,12.699927001953125,-11.42994213104248,-87.53886413574219,24.48580551147461
1687149087978982000,12.70998193359375,-1.7234302759170532,-80.38361358642578,60.46564865112305
1687149087989036800,12.720036865234375,15.876936912536621,-52.939414978027344,108.95219421386719
1687149087999091700,12.730091796875,39.858421325683594,-12.884238243103027,142.4878692626953
1687149088009146600,12.740146728515626,58.33394241333008,6.545624256134033,120.00935363769531
1687149088019201500,12.750201416015624,48.343441009521484,3.9598660469055176,72.53213500976562
1687149088029256400,12.76025634765625,32.35449981689453,-0.3889733552932739,30.648439407348633
1687149088039311400,12.770311279296875,22.917102813720703,7.601775169372559,-0.8567886352539062
1687149088049366300,12.7803662109375,14.139063835144043,14.792963027954102,-11.320741653442383
1687149088059421200,12.790421142578126,1.5901845693588257,8.684599876403809,-4.798593521118164
1687149088069476000,12.80047607421875,-9.100591659545898,4.93031644821167,-2.7309789657592773
1687149088079531000,12.810531005859374,-12.499696731567383,5.9641218185424805,-4.098336696624756
1687149088089585700,12.820585693359375,-9.41220760345459,7.001191139221191,-3.225128650665283
1687149088099640600,12.830640625,-4.840970516204834,6.603410720825195,-1.4742021560668945
1687149088109695500,12.840695556640625,-0.9889752864837646,5.500312805175781,-0.5352096557617188
1687149088119750400,12.85075048828125,1.475090503692627,3.738309144973755,-1.325418472290039
1687149088129805300,12.860805419921874,2.3323378562927246,2.4610347747802734,-3.4362564086914062
1687149088139860200,12.870860107421874,1.855008840560913,1.91563081741333,-5.410673141479492
