time ax ay az
2251852514138 0.273978 1.088136 9.804890
2251872535388 0.197408 1.150349 9.785748
2251892549815 0.288335 1.191028 9.603594
2251912571065 0.580559 1.332503 9.340084
2251932577003 1.198505 1.622334 9.457631
2251952598253 1.526920 1.756332 9.639486
2251972657003 1.215255 1.550250 9.697213
2251992678253 0.968794 1.198206 10.013365
2252012660180 1.383052 1.078565 10.571490
2252032681378 1.692025 1.425823 10.116256
2252052724190 1.831107 1.808974 9.562916
2252072745388 1.730310 1.792224 9.641879
2252092757836 1.651347 1.504786 9.895817
2252112779034 1.555634 1.495215 9.970294
2252132805596 1.668097 1.722832 9.718748
2252152826846 1.809572 1.876272 9.476774
2252172857419 1.553241 1.765903 9.512667
2252192878617 1.375873 1.523929 9.982258
2252212883982 1.569991 1.495215 9.984651
2252232905180 1.507478 1.572084 9.632308
2252252932992 1.066900 1.377967 9.637094
2252272954242 0.975973 1.219741 9.910174
2252292977784 1.076471 1.301396 10.152148
2252312998982 1.363909 1.351646 10.056436
2252333018409 1.284946 1.449751 9.881460
2252353039659 0.887139 1.159921 9.639486
2252373057159 0.547059 1.083350 9.613165
2252393078357 0.645165 1.143171 9.840782
2252413107211 0.975973 0.932304 9.883853
2252433128461 0.580559 1.279562 10.154541
2252453156273 0.745962 1.339682 9.833604
2252473177523 0.645165 1.198206 9.448060
2252493195700 0.364905 1.214956 9.460024
2252513216898 0.283549 1.088136 9.658928
2252533240596 0.376870 1.013959 9.802497
2252553261794 0.463310 0.958625 9.939187
2252573270128 0.678664 0.977767 10.190434
2252593291378 0.879961 1.061815 10.056436
2252613316690 0.750748 1.100100 9.989436
2252633337940 0.676271 1.088136 10.022936
2252653384919 0.757927 1.150349 9.955936
2252673406117 0.808176 1.214956 9.867104
2252693404711 0.870389 1.370788 9.742677
2252713425961 1.150649 1.543072 9.783355
2252733457628 1.821536 1.845165 9.936794
2252753478825 2.437090 2.074876 9.795319
2252773506013 2.866003 2.297708 9.366405
2252793527211 2.997609 2.657230 8.710174
2252813551794 2.669493 2.347957 8.080263
2252833572992 2.968895 2.393720 7.644171
2252853591013 3.917350 2.848655 6.944570
2252873612263 4.813462 3.330211 4.767101
2252893618825 6.866205 3.775874 1.890330
2252913640075 9.367303 4.503891 0.853041
2252933649815 10.251151 4.508676 1.372882
2252953671013 10.198509 3.929015 2.088934
2252973694346 9.534800 3.718446 2.448456
2252993715596 4.925924 2.774478 -0.450150
2253013745128 -4.354040 -3.503990 -5.679365
2253033766430 -13.727624 -15.040685 -1.750948
2253053814503 -16.252350 -27.945177 26.113472
2253073835805 -10.699805 -33.732517 73.035828
2253093834555 18.256937 -34.916069 78.914391
2253113855857 17.310575 -28.651659 28.230820
2253133899294 -17.263319 -12.669099 -19.688145
2253153920596 -4.172185 1.037887 1.365704
2253173920700 12.177074 10.068699 9.747462
2253193942003 4.892425 7.038488 -2.493620
2253213979503 3.591627 5.368896 -1.748555
2253234000805 4.260122 1.226920 3.227021
2253254034190 -0.882952 -2.045265 5.967401
2253274055492 -3.886841 -1.520639 1.090230
2253294040023 -6.696912 -2.406880 -6.666404
2253314061378 -8.033603 -3.010470 -7.835298
2253334137419 -9.676874 -2.751746 -4.603791
2253354158773 -18.633509 -7.226624 -5.305785
2253374173878 -20.760727 -18.447166 -2.543869
2253394195180 -5.805885 -32.273792 14.042579
2253414184450 8.737093 -36.549767 48.779484
2253434205805 23.991636 -30.034111 78.914391
2253454262263 33.499218 -24.047569 76.775208
2253474283565 12.114861 -25.396223 28.532616
2253494297888 -26.969803 -19.625631 -9.392427
2253514319242 -8.996415 -5.190331 13.819747
2253534331794 9.060423 3.620042 12.432807
2253554353148 4.279264 5.711369 -10.290633
2253574382732 3.416951 7.028916 -13.119846
2253594404086 1.517349 4.736293 -9.553045
2253614426586 -0.631406 2.335993 -8.855837
2253634447940 -1.283151 1.806581 -8.048558
2253654468148 -2.052145 1.444966 -5.399105
2253674489503 -0.842274 0.412463 -1.528116
2253694512211 3.505485 -0.687039 5.085945
2253714533565 6.911967 -1.192523 12.015858
2253734532211 7.319046 -1.115654 12.710674
2253754553565 9.843773 0.604188 12.099906
2253774595596 14.289937 2.755335 13.985151
2253794616950 15.588343 3.464508 14.617455
2253814640648 12.572489 3.174677 11.522338
2253834662003 9.963714 2.865405 9.666106
2253854682107 9.209077 3.198606 9.428918
2253874703461 8.837891 3.541078 9.460024
2253894683930 8.178967 3.615256 8.362915
2253914705232 7.395617 3.610470 6.492027
2253934726065 7.124928 3.632006 5.382954
2253954747367 7.366903 3.538686 5.490631
2253974771846 7.117750 3.253641 6.010471
2253994793148 6.751349 2.879762 6.468099
2254014809867 6.705885 2.750550 6.556633
2254034831169 7.165606 2.798406 6.812964
2254054880232 7.592127 2.908775 6.964011
2254074901534 7.898707 2.994917 6.822536
2254094920961 8.238788 3.251248 6.597311
2254114942263 8.313264 3.279962 6.223732
2254134964711 8.408977 3.406781 5.651249
2254154986013 8.648559 3.586542 5.313262
2254175006794 8.852247 3.732803 5.188836
2254195028096 9.089436 3.885944 4.875077
2254215052367 8.861818 3.828516 4.324130
2254235073669 8.145468 3.699005 3.974179
2254255092523 7.690233 3.761517 3.909573
2254275113825 8.159824 4.092026 3.718147
2254295136690 8.655737 4.281358 2.970689
2254315157992 8.344371 4.123133 2.379064
2254335161117 7.659126 3.996313 1.677070
2254355182419 6.952645 3.893122 0.841077
2254375221325 5.946464 3.457330 -0.054736
2254395242628 4.497310 3.217748 -1.197608
2254415264242 0.822533 2.386541 -2.879164
2254435285596 -5.808278 -2.567499 -5.434998
2254455304294 -15.354145 -13.112369 -0.402293
2254475325596 -19.630119 -27.638597 23.638695
2254495349294 -6.646663 -35.567513 64.752472
2254515370596 31.745876 -30.285658 78.914391
2254535395857 43.416569 -13.739886 39.832123
2254555417159 -4.574479 -7.760821 -24.536602
2254575433617 -13.485649 -1.944468 -5.521438
2254595454919 13.180863 7.974979 23.794527
2254615475961 10.605588 6.935297 8.547162
2254635497263 4.521238 5.998806 -5.185845
2254655519034 4.032505 4.738686 2.968297
2254675540336 1.653740 1.226920 11.699706
2254695565232 -2.030609 0.062812 9.421740
2254715586534 -4.308576 -0.425922 2.472384
2254735570544 -4.828417 -0.679861 -1.906481
2254755591846 -5.350650 -0.675075 -2.771487
2254775655596 -10.702198 -1.750649 -7.167102
2254795676898 -17.158033 -9.940682 -10.384252
2254815691846 -15.169599 -26.193930 -0.785444
2254835713148 -4.318148 -49.971409 22.345375
2254855733669 13.140185 -56.259747 66.180092
2254875754971 39.741795 -38.858841 78.914391
2254895744971 46.288555 -32.829525 49.215279
2254915766273 7.098608 -25.386652 -8.038987
2254935818513 -22.859234 -13.701602 -6.424430
2254955839815 -1.745564 -6.740282 18.567705
2254975861898 8.845069 -1.019941 13.129717
2254995883253 7.034001 3.323032 -2.680260
2255015904919 4.365406 6.729515 -9.392427
2255035926325 0.875175 7.982157 -8.355139
2255055932836 1.007079 6.485147 -5.531010
2255075954294 0.226122 5.038088 -3.681657
2255095974294 -2.006681 2.755335 -3.327220
2255115995753 -3.096611 2.053341 -2.318645
2255136018096 -2.643770 2.314458 -0.816551
2255156039555 -1.872384 1.995913 -0.318245
2255176059971 0.487238 1.217349 0.579960
2255196081378 3.201298 -1.137189 4.340879
2255216117263 5.587241 -2.749353 8.482556
2255236138721 8.921639 -1.453640 12.399308
2255256125336 10.732707 0.041276 13.671093
2255276146794 12.498012 1.442573 14.021044
2255296193513 13.693525 2.525325 12.653246
2255316214919 12.622738 2.882155 8.293224
2255336222263 11.305190 3.368496 5.335097
2255356243721 10.579268 3.881158 5.105087
2255376289398 9.901500 4.099204 6.147161
2255396310857 9.087043 3.989135 6.738787
2255416330544 8.538488 4.001099 6.216553
2255436352003 8.159824 3.996313 5.466702
2255456342523 8.440084 4.063312 5.145765
2255476363982 8.579166 4.010670 5.327620
2255496381950 8.303693 3.505186 5.751748
2255516403409 7.987541 3.258426 6.039185
2255536460596 8.111968 3.217748 6.099006
2255556482055 8.703593 3.330211 5.893223
2255576502523 9.010174 3.399603 5.488238
2255596523982 9.161221 3.325425 5.196014
2255616545232 9.311969 3.318247 4.877470
2255636566690 9.266505 3.318247 4.438985
2255656583721 9.106186 3.325425 4.005585
2255676605180 8.883354 3.205784 3.761218
2255696630440 8.753842 3.296711 3.696313
2255716651898 8.741879 3.401996 3.488137
2255736671378 8.631808 3.390032 3.262913
2255756692836 8.428120 3.509972 2.812464
2255776714503 8.650951 3.646363 2.108376
2255796735909 8.516654 3.701397 1.224228
2255816756742 8.332407 3.967300 0.275773
2255836778200 8.308478 3.938586 -0.282353
2255856802263 6.046962 3.433102 -2.184348
2255876823721 2.439483 2.118246 -3.832405
2255896833878 -2.806482 -1.297807 -2.833700
2255916855284 -10.577473 -6.637391 1.971686
2255936888305 -15.246468 -17.187046 14.871393
2255956909763 -7.209575 -31.677383 40.177288
2255976929711 20.954247 -37.287354 75.153473
2255996951117 58.965431 -21.125334 74.346199
2256016969815 39.454357 -7.825428 4.450949
2256036991221 -12.225529 -4.742575 -23.291138
2256057015440 -3.664309 -1.079761 17.925531
2256077036846 12.500404 4.654937 27.567411
2256097029034 8.365906 4.290929 3.488137
2256117050388 4.839783 6.832406 -7.535896
2256137100284 2.300400 4.755436 0.311665
2256157121690 2.647957 1.504786 6.132505
2256177143044 1.078864 0.254537 5.651249
2256197164450 -1.865205 0.117847 2.577668
2256217173982 -3.309573 -0.720539 0.203689
2256237195388 -4.802096 -1.527817 -1.587937
2256257219138 -6.790233 -1.012762 -4.644469
2256277240544 -11.607583 -4.550849 -9.809377
2256297256013 -13.291532 -17.093727 -6.036493
2256317277419 -8.665906 -41.053059 14.330016
2256337305232 7.829316 -60.178593 55.450672
2256357326638 42.384068 -46.308895 78.914391
2256377357211 56.891151 -39.766918 61.115982
2256397378617 17.648264 -29.435009 -1.925624
2256417399398 -19.019350 -11.016256 -9.718150
2256437420805 1.562812 -3.257230 16.747066
2256457441325 13.789239 0.946660 8.743673
2256477462732 13.928322 4.978268 -5.434998
2256497485544 9.838987 6.748657 -10.575678
2256517506950 5.452944 5.639584 -12.458530
2256537514659 2.032105 4.341178 -10.254741
2256557536117 -1.623231 2.695515 -7.866405
2256577567628 -3.498905 1.823630 -5.262714
2256597589034 -2.921636 2.432005 -3.128316
2256617611950 -2.131108 2.434398 -2.392823
2256637633357 -0.550050 1.193420 -1.418046
2256657610961 2.535196 -1.240379 0.807578
2256677632367 5.843572 -3.868297 3.890430
2256697697784 10.167402 -4.593920 6.714859
2256717719190 15.612270 -2.050051 8.667103
2256737724294 19.516758 0.848555 8.664710
2256757745700 21.814167 3.531507 8.135298
2256777782471 19.538294 3.756732 8.226225
2256797803878 14.141283 1.698904 5.533701
2256817828513 11.882458 0.630509 1.715355
2256837849919 12.318550 2.154139 2.086541
2256857842055 13.159328 3.814159 4.051049
2256877863461 12.471691 3.708576 4.118048
2256897910648 10.747064 3.469294 2.391028
2256917932055 9.781560 3.457330 0.467199
2256937938825 9.652348 3.375674 -0.517149
2256957960232 9.688240 3.287140 -0.720838
2256977974086 9.908679 3.162414 0.179761
2256997995492 10.188938 3.011666 1.202693
2257018035909 10.389935 2.803192 1.715355
2257038057315 10.718349 2.623431 1.648356
2257058082159 10.864312 2.539682 1.188336
2257078103565 10.936097 2.499004 0.747458
2257098123357 10.790134 2.403291 0.694816
2257118144763 10.483554 2.283351 0.888934
2257138147523 10.282258 2.350350 1.154836
2257158168930 10.025927 2.412863 1.202693
2257178210544 9.848558 2.441576 0.747458
2257198231950 10.030712 2.714657 0.155833
2257218252055 9.908679 2.822334 -0.452543
2257238273461 9.541979 2.774478 -0.730409
2257258292992 9.221041 2.925525 -1.015454
2257278314398 9.034101 3.107379 -1.269392
2257298337680 8.090432 2.961417 -2.045564
2257318359034 6.037391 2.321636 -3.212065
2257338363096 3.450450 1.550250 -3.684050
2257358384450 0.434596 -0.746860 -4.376173
2257378408773 -3.345465 -3.999902 -3.130709
2257398430180 -8.757133 -10.338490 5.632106
2257418460805 -12.800704 -20.832811 28.980671
2257438482159 2.276472 -31.710882 62.967728
2257458469398 49.261639 -22.203300 76.056763
2257478490805 51.762436 -3.913760 20.723639
2257498538930 -2.880959 -8.663813 -22.989044
2257518560284 -13.066607 -3.887439 -0.677767
2257538588930 8.507083 7.234998 17.163717
2257558610284 7.103393 7.915158 2.149054
2257578620180 3.134299 7.138987 -8.858230
2257598641586 5.050651 5.728118 -3.449254
2257618663461 5.019544 2.108675 1.626820
2257638684867 2.995216 0.192024 3.234199
2257658652888 0.781855 -0.957727 3.634099
2257678674294 -0.595514 -1.460818 3.516851
2257698745128 -2.715555 -0.868894 0.589532
2257718766534 -7.940283 -3.163910 -9.244072
2257738788461 -10.687841 -14.202300 -10.899307
2257758809815 -1.594517 -36.391541 8.334201
2257778833773 16.563118 -43.551765 58.322960
2257798855180 38.697327 -22.004396 78.914391
2257818893461 37.758442 -32.187653 48.130131
2257838914867 -1.038784 -30.036505 0.223131
2257858893982 -10.520044 -16.051653 7.756634
2257878915336 7.285547 -5.010870 14.749060
2257898973930 9.954143 2.740978 1.188336
2257918995284 9.788738 8.348857 -7.698907
2257939005388 8.876176 10.511969 -8.692825
2257959026742 6.715457 8.365607 -6.848557
2257979037159 3.960720 5.083851 -4.809873
2257999058513 1.397408 3.198606 -2.706582
2258019091325 0.187837 2.760121 -0.124427
2258039112680 -0.078066 3.131308 2.311766
2258059130700 -0.274576 2.920739 3.404089
2258079152055 -1.366900 1.569692 5.049753
2258099187055 -2.190928 -0.112164 7.148259
2258119208409 -1.601696 -1.506282 8.772387
2258139223617 -0.068495 -2.634498 11.407483
2258159244919 0.765105 -3.700500 13.836497
2258179280180 0.573380 -3.372384 12.370594
2258199301482 1.720739 -2.955435 10.367802
2258219312055 5.158328 -1.966302 14.560027
2258239333357 6.866205 -1.067797 16.025930
2258259351586 5.623133 -0.993620 12.897614
2258279372940 5.256433 -0.545564 10.334302
2258299386013 5.730810 0.194417 10.085149
2258319407367 6.255436 0.913161 10.293624
2258339417367 5.668597 1.121636 9.510274
2258359438721 4.885247 0.999303 8.707781
2258379496898 4.614559 1.068994 8.329415
2258399518253 4.585845 0.989731 7.926823
2258419536794 5.187041 1.076172 8.008179
2258439558148 5.754738 1.133600 8.085049
2258459562575 5.979963 0.760020 8.367701
2258479583930 5.958427 0.352642 8.921041
2258499624190 6.025426 0.065204 9.481560
2258519645492 6.317650 0.062812 9.713963
2258539659503 7.232904 0.520439 9.258728
2258559680805 8.119146 1.157528 8.190332
2258579673305 8.799605 1.797010 6.482456
2258599694607 10.363614 3.052344 3.696313
2258619725232 12.438191 4.044169 1.499702
2258639746586 14.620445 4.717151 1.533201
2258659769294 14.445470 4.288537 2.603989
2258679790596 11.714662 3.521936 1.653141
2258699826846 8.638987 3.409174 -1.513759
2258719848200 6.341578 3.541078 -3.969095
2258739866742 5.108078 3.466901 -5.025526
2258759888044 5.129613 3.608078 -4.824230
2258779901846 5.445765 3.694219 -3.571587
2258799923200 5.769095 3.653541 -1.731805
2258819939190 6.585945 3.857230 -0.778266
2258839960544 6.643672 3.795017 -0.744766
2258859985857 5.079364 3.155236 -1.178465
2258880007211 2.252543 1.921736 -1.863411
2258900035492 -0.643370 -0.706182 -2.359323
2258920056846 -2.955136 -6.136693 0.088834
2258940087471 -3.688237 -12.769897 8.906684
2258960108721 -0.339183 -18.571594 23.674587
2258980115805 10.167402 -20.293827 42.876987
2259000137107 26.281567 -19.575382 55.481781
2259020142992 39.864124 -13.347165 43.058842
2259040164294 28.480572 -4.191627 5.440382
2259060221117 -1.031606 -3.317349 -9.955338
2259080242367 -4.016353 -2.531606 9.143872
2259100263253 6.983752 2.870191 14.430515
2259120284503 8.588737 4.884947 1.696212
2259140292992 7.551449 4.626224 -1.350748
2259160314294 6.487840 -0.006580 7.402197
2259180349138 1.797608 -2.033301 14.040186
2259200370388 -2.432902 -1.630709 10.770393
2259220368357 -4.394718 -2.950649 2.857928
2259240389607 -7.734201 -3.698107 -1.379462
2259260410440 -13.073785 -2.926721 -6.148956
2259280431742 -18.058632 -7.662715 -12.509079
2259300456325 -10.671092 -22.409082 -3.607479
2259320477628 8.591130 -41.369511 18.622740
2259340492784 29.273493 -33.921852 63.684078
2259360514034 34.850266 -25.969006 75.675705
2259380551169 27.493832 -35.610584 42.512680
2259400572419 4.217051 -31.576586 18.555742
2259420596482 -3.597011 -24.873989 14.023437
2259440617836 10.128819 -13.934005 14.013865
2259460642419 17.660227 -1.077368 4.175476
2259480663721 19.121643 7.675577 -8.654540
2259500674346 19.011274 11.836696 -11.622538
2259520695596 14.462519 9.005089 -10.499107
2259540711846 7.568199 5.471787 -8.166105
2259560733148 2.211865 3.093022 -3.731906
2259580770909 -0.909273 1.931307 -0.212961
2259600792107 -2.557628 2.038984 0.850648
2259620794555 -2.722733 2.228316 1.459024
2259640815805 -3.403192 1.150349 3.868895
2259660838200 -3.108576 -0.507278 8.583354
2259680859503 -2.842673 -2.191227 12.511770
2259700877471 -2.471188 -2.636891 13.228122
2259720898721 -1.613660 -2.519642 10.971391
2259740929971 -0.257827 -2.349453 11.723635
2259760951325 0.606880 -2.490629 13.472488
2259780980961 0.539881 -2.603391 11.752348
2259801002211 1.438086 -1.336092 8.817850
2259820990284 5.632705 -0.004187 8.755637
2259841011586 10.227223 1.004088 12.674782
2259861055388 10.068997 0.721436 12.066108
2259881076690 9.403194 1.198206 8.461020
2259901103461 9.887143 2.240280 6.139684
2259921124763 10.229616 2.891726 5.813961
2259941129138 9.403194 2.549253 6.235696
2259961150388 8.658130 2.099104 6.846464
2259981183617 8.770593 2.436791 6.734001
2260001204867 8.857033 3.157629 5.368597
2260021236690 9.002995 3.272783 4.043870
2260041258096 8.916854 3.346961 2.232803
2260061264919 8.945567 3.498008 0.838684
2260081286325 9.949356 3.624827 0.733101
2260101299190 11.180464 3.766303 1.236192
2260121320544 11.638091 3.900301 1.734497
2260141338825 10.861919 3.778267 1.576571
2260161360180 10.483554 3.838088 0.345165
2260181381950 10.440483 3.847659 -0.308674
2260201403305 9.985249 3.847659 -0.100499
2260221439815 9.635597 3.974478 -0.098106
2260241461221 9.577870 4.087240 -0.893420
2260261501742 9.693026 4.190132 -1.580758
2260281523096 9.177970 4.094419 -2.045564
2260301518044 8.998210 4.068098 -1.887339
2260321539450 9.026923 4.118347 -1.231107
2260341575336 8.303693 3.862016 -0.917348
2260361596742 7.268797 3.567400 -1.058525
2260381585648 6.593124 3.313461 -1.137488
2260401607003 5.874679 2.968596 -0.991526
2260421653513 5.088935 2.597110 -0.581755
2260441674919 4.808676 2.338386 -0.421436
2260461695857 4.861318 2.154139 -0.742373
2260481717263 4.683950 1.691726 -0.864407
2260501748982 3.809673 1.061815 -0.500399
2260521770388 1.914856 -0.502493 -0.378365
2260541780596 -1.323829 -4.534100 -0.344866
2260561801950 -3.192324 -13.057334 4.422235
2260581811950 1.543670 -23.365015 25.490440
2260601833357 11.367403 -26.421547 64.005013
2260621865180 35.679081 -24.383162 74.868431
2260641886586 39.157345 -13.172190 27.131319
2260661906534 1.543670 -6.773782 -13.057633
2260681927940 -7.267003 -2.188834 -0.763909
2260701965596 8.085647 5.773582 10.724631
2260721987003 11.274083 9.474680 3.061617
2260742002471 8.845069 7.563114 -3.739084
2260762023878 9.340981 0.879661 3.854538
2260782041065 4.518846 -3.190231 15.252151
2260802062471 -0.355932 -0.876371 13.383656
2260822084138 -4.215256 -1.870290 -0.081356
2260842105544 -7.631011 -3.623930 -7.200602
2260862107107 -13.088141 -3.865904 -9.004491
2260882128461 -28.179674 -13.083655 -12.827623
2260902152680 -29.437103 -34.003204 -3.054139
2260922174034 -6.234499 -67.120766 24.687948
2260942224763 32.083565 -69.298241 69.919472
2260962246117 55.108799 -35.158043 78.914391
2260982205961 43.591248 -32.062927 39.592541
2261002227315 0.096610 -28.244579 -8.424829
2261022296794 -19.507786 -19.240089 4.065406
2261042318148 2.691028 -11.605489 18.675383
2261062318878 14.531911 -1.920539 12.842279
2261082340232 10.047462 3.771089 -2.431108
2261102397523 3.943970 5.816653 -9.512367
2261122418878 3.071786 6.145068 -5.190929
2261142433409 2.707778 5.067101 -0.704088
2261162454763 0.192622 3.766303 -0.265603
2261182451325 -1.948954 2.906382 -1.307678
2261202472628 -2.658127 2.484647 -0.929312
2261222525596 -2.358725 2.245066 1.229014
2261242546950 -2.361118 1.143171 3.813860
2261262566482 -2.842673 -0.490529 7.457232
2261282587836 -3.733701 -2.083550 10.796715
2261302575492 -3.980460 -2.945864 12.499806
2261322596846 -3.592225 -2.862115 12.526128
2261342625596 -3.031706 -2.160121 9.857532
2261362646898 -2.025823 -1.134796 6.374479
2261382659659 -0.492622 -0.351745 3.411268
2261402681013 2.240579 -0.140877 1.415953
2261422714919 6.777670 -0.471386 1.341775
2261442736273 10.682458 -0.859322 3.349054
2261462761794 14.802599 -1.779363 5.454738
2261482783148 17.914165 -0.550349 7.893324
2261502802628 19.780268 2.084448 8.923434
2261522823982 18.252151 2.721836 6.863214
2261542843878 14.213367 0.865304 1.602892
2261562865232 11.156535 -0.632004 -3.394219
2261582877836 11.187642 0.376570 -4.273282
2261602899242 14.095819 2.441576 -0.572184
2261622940232 15.332011 3.299104 0.529711
2261642961534 13.451551 2.982953 -1.784447
2261662975753 11.175678 2.388934 -3.820441
2261682997159 9.911072 2.496611 -3.803691
2261703021117 9.865309 2.954239 -2.043171
2261723042471 9.731311 3.045166 -1.171287
2261743057628 8.813962 2.702693 -1.393819
2261763078982 8.018648 2.520540 -1.475474
2261783104294 8.049754 2.539682 -1.310070
2261803125700 8.284551 2.582753 -0.883849
2261823143669 8.349156 2.558825 -0.210568
2261843165023 8.282157 2.408077 0.021835
2261863198825 8.339585 2.405684 -0.181855
2261883220180 8.013863 2.292922 -0.514756
2261903239138 7.424330 2.050948 -0.519542
2261923260492 7.103393 2.003092 -0.210568
2261943272940 6.947860 1.986342 -0.023629
2261963294242 6.495018 1.948057 -0.105284
2261983319294 6.099903 1.859522 -0.421436
2262003340596 5.716453 1.833201 -1.025025
2262023357003 3.991826 0.496511 -2.177170
2262043378253 1.831107 -2.914757 -1.906481
2262063392315 0.611665 -7.746464 3.370590
2262083413669 3.114857 -10.700105 18.052650
2262103425232 10.459626 -9.435199 40.131523
2262123446534 19.928923 -12.269198 43.387257
2262143455023 24.360430 -12.465409 23.382364
2262163476325 19.375582 -1.762613 11.002797
2262183545909 9.036494 1.452144 5.907580
2262203567263 4.564309 2.465505 2.819642
2262223571690 7.098608 7.191628 -2.208276
2262243593044 11.721840 9.664013 -3.068496
2262263605284 11.844173 4.132704 -0.613161
2262283626638 5.108078 -2.500500 1.411167
2262303640700 -2.200500 -1.556531 1.569393
2262323662055 -4.588836 -1.168595 -1.633401
2262343683513 -4.897809 -3.451348 -3.700799
2262363704815 -8.261220 -6.395417 -6.465108
2262383731430 -13.030415 -15.912570 -6.769295
2262403752784 -7.532905 -34.650166 7.249056
2262423759346 13.616656 -56.549576 40.023846
2262443780700 41.212780 -46.900520 78.914391
2262463803044 48.078087 -37.792839 70.582886
2262483824398 9.201899 -44.440399 16.155441
2262503876221 -8.795418 -34.841591 6.060720
2262523897523 14.675481 -19.309481 16.332510
2262543905805 21.004496 -7.928618 3.720540
2262563927107 17.255541 0.587438 -11.380564
2262583945753 19.262821 7.852945 -16.097416
2262603967107 18.335901 11.446067 -14.767903
2262624001169 11.808281 9.615857 -11.483754
2262644022523 4.626523 5.569893 -6.879664
2262664017315 -0.360718 3.227319 -1.343570
2262684038669 -3.038885 2.441576 1.976472
2262704101638 -4.068995 3.097808 3.634099
2262724122992 -2.468795 4.017848 5.718248
2262744096378 -0.597907 3.382853 8.058727
2262764117732 -1.604088 0.362214 9.273085
2262784191325 -4.092923 -2.140978 11.271092
2262804212680 -4.215256 -2.761317 12.468699
2262824203409 -2.799303 -1.812862 10.128220
2262844224711 -1.017249 -1.240379 6.273981
2262864233305 1.105185 -1.264308 5.289334
2262884254607 1.929213 -1.901397 6.072685
2262904297159 1.895714 -4.083651 5.900402
2262924318461 3.929314 -5.597710 7.840682
2262944364607 5.450551 -5.894719 13.893925
2262964385909 4.640880 -5.923432 17.132610
2262984418513 7.201798 -4.512564 14.560027
2263004439867 11.376974 -1.798505 9.608379
2263024462211 13.767703 -0.186341 5.770890
2263044483669 15.475580 0.604188 4.872684
2263064478825 15.312868 1.212563 5.682355
2263084500284 13.345968 1.679762 4.769494
2263104535336 12.014064 2.101496 3.126223
2263124556794 11.298011 2.458326 2.438884
2263144546690 9.975677 2.254637 2.187339
2263164568148 9.290433 1.969592 1.983650
2263184598669 9.185149 1.725225 2.211267
2263204620128 9.319147 1.598405 2.750251
2263224640857 9.372088 1.404288 3.107080
2263244662315 9.482158 1.224527 3.210271
2263264674190 9.676275 1.366003 2.965904
2263284695648 10.289436 1.703690 2.357229
2263304726690 11.312368 2.062912 1.583750
2263324748200 11.673984 2.367399 1.291526
2263344761273 11.355439 2.350350 1.286441
2263364782732 10.837991 2.458326 1.478166
2263384814919 10.684851 2.577967 1.554736
2263404836430 10.579268 2.640480 1.315454
2263424832784 10.167402 2.558825 1.334597
2263444854242 9.767203 2.491826 1.626820
2263464913148 9.707382 2.522932 1.734497
2263484934607 9.652348 2.544468 1.693819
2263504933513 9.012567 2.515754 1.672284
2263524954971 8.327621 2.359921 1.567000
2263544963565 7.939385 2.527718 1.260120
2263564985023 7.776674 2.733800 1.028016
2263585012107 7.297511 2.810370 0.711566
2263605033617 6.418447 2.736193 0.242273
2263625085700 5.682954 2.443969 0.036191
2263645107159 4.811069 2.084448 0.167797
2263665108617 2.726921 1.449751 -0.220140
2263685130128 -0.109173 -0.069093 -1.782055
2263705160128 -3.041278 -3.983152 -2.371287
2263725181586 -7.243074 -10.807781 3.179164
2263745172784 -9.576375 -20.995823 19.238295
2263765194242 -1.462912 -27.938000 42.407398
2263785219763 22.602304 -29.248369 60.251274
2263805241273 43.210487 -16.882860 46.048378
2263825299242 26.147570 -2.382952 1.648356
2263845320700 0.233300 -3.077768 -6.410073
2263865340805 2.544767 0.956232 6.352944
2263885362315 12.761521 7.045666 12.375380
2263905361273 11.412867 6.113662 3.833003
2263925382732 8.579166 5.105386 -2.356930
2263945425544 7.539485 0.755235 3.653242
2263965447003 5.354838 -1.863111 10.446765
2263985447471 3.711567 -2.078765 10.616954
2264005468982 -1.491626 -3.731607 5.744569
2264025494555 -6.335297 -3.120839 2.304587
2264045515857 -10.496117 -1.544567 -1.839482
2264065526013 -17.989241 -6.021837 -11.280065
2264085547367 -16.194923 -19.563419 -4.922635
2264105571378 -4.780560 -44.255852 18.279968
2264125592680 18.951454 -54.216278 61.956760
2264145642367 57.022758 -35.174793 78.914391
2264165663669 50.059048 -28.603802 51.989155
2264185641950 -7.654939 -34.575687 0.781257
2264205663305 -13.248461 -22.869102 4.355237
2264225688461 13.971393 -6.570392 14.638989
2264245709815 17.535801 3.256033 1.085444
2264265775388 14.100605 8.090134 -11.196317
2264285796742 11.161322 8.363214 -12.231212
2264305780492 7.970492 5.622834 -8.819944
2264325801794 5.390730 3.507579 -5.619544
2264345823825 2.659921 2.458326 -3.389433
2264365845128 0.446561 2.345564 -2.088635
2264385894815 -0.566800 2.585146 -0.950848
2264405916117 -0.813560 2.611467 0.467199
2264425903617 -0.248255 1.871486 2.575275
2264445924919 0.618844 -0.406780 4.290630
2264465937159 0.480060 -3.130410 5.018646
2264485958461 0.777069 -4.874180 4.810471
2264505993409 3.433701 -5.583353 5.097908
2264526014711 7.992327 -4.907679 6.698109
2264546046273 11.685947 -4.311268 8.154441
2264566067628 13.001102 -3.863511 8.549556
2264586086325 13.552051 -2.634498 8.971291
2264606107680 15.835102 -0.471386 7.895717
2264626127784 16.002600 -0.258126 5.402096
2264646149086 14.754743 -1.654637 4.000800
2264666182836 13.899308 -1.961516 4.192225
2264686204138 13.817952 -1.506282 4.419843
2264706226742 13.861023 -0.370888 4.566104
2264726248044 13.537693 0.139382 4.144369
2264746302003 12.754343 0.259322 3.044867
2264766323305 12.186646 0.230608 1.844866
2264786312628 12.105289 0.331107 0.855434
2264806333930 12.428620 0.477368 0.450449
2264826382055 12.914961 0.594616 0.735494
2264846403357 13.243077 0.709472 1.193121
2264866389190 13.264612 0.850948 1.437488
2264886410492 13.082458 0.474975 1.248156
2264906430492 13.564014 0.738186 1.102194
2264926451794 13.693525 1.138385 1.344168
2264946481482 13.015460 1.135993 1.401596
2264966502784 12.364014 1.179063 0.752543
2264986512263 11.944672 1.193420 -0.277567
2265006533617 11.705091 1.511965 -0.783051
2265026555440 10.914561 1.521536 -0.359223
2265046576742 9.235398 0.980160 0.093619
2265066616221 6.978966 1.004088 0.033799
2265086637523 5.472086 1.337289 -0.299103
2265106629867 4.751248 1.545464 -0.519542
2265126651117 4.291228 1.540679 -0.270389
2265146706586 3.385545 1.435395 0.251845
2265166727888 2.125724 1.064208 0.656531
2265186714086 0.722034 0.702293 0.467199
2265206735388 -0.689133 0.283250 -0.464507
2265226765336 -2.119143 -1.719542 -1.760519
2265246786638 -3.498905 -5.509175 -0.806979
2265266828982 -4.495515 -10.901401 5.715855
2265286850284 -3.858127 -16.911573 19.712671
2265306859919 1.831107 -22.938496 39.384365
2265326881221 17.094923 -28.481768 54.375099
2265346883409 33.592537 -21.530020 53.067123
2265366904711 21.193529 -11.481062 20.622841
2265386928721 -9.894919 -7.933403 -0.253639
2265406950023 -3.589832 -3.080161 9.737891
2265426971482 16.294823 7.718647 13.110575
2265446992784 13.820345 10.380065 4.072584
2265467047888 4.918746 6.269495 -1.825125
2265487069190 5.062614 4.132704 2.285445
2265507065648 6.725028 2.149353 5.895616
2265527086950 5.429016 0.937089 5.562415
2265547101221 2.923431 -0.097807 4.120440
2265567122523 -1.922633 -1.791327 2.151447
2265587140909 -6.129215 -3.273980 -0.452543
2265607162263 -6.943672 -2.265704 -1.968994
2265627219294 -7.326823 -2.703890 -4.529613
2265647240596 -8.716156 -9.152547 -5.693721
2265667251169 -9.427721 -21.807886 3.382554
2265687272471 -3.527619 -39.297325 23.291437
2265707268617 18.570696 -49.219463 56.569317
2265727289919 50.550175 -41.673698 78.914391
2265747317940 43.411785 -31.605299 57.705013
2265767339242 -3.180360 -33.299118 5.912365
2265787390336 -10.680663 -25.044180 1.672284
2265807411638 18.242580 -6.045765 9.289835
2265827409190 20.671595 7.242177 -1.075275
2265847430492 11.091929 7.354640 -11.869298
2265867468825 7.405188 4.856234 -11.970096
2265887490128 4.830212 3.919444 -6.793223
2265907502628 4.092325 3.495615 -2.860021
2265927523930 3.311368 3.598506 -1.753341
2265947543148 1.344766 3.392424 -1.147358
2265967564503 -0.633799 2.767299 0.069691
2265987588825 -1.726122 2.000699 2.139482
2266007610128 -2.028216 0.551546 4.676174
2266027612680 -1.594517 -1.019941 6.997511
2266047633982 -0.950250 -1.798505 7.176972
2266067675544 0.192622 -2.584249 6.734001
2266087696794 2.161616 -3.995116 8.856435
2266107715075 3.864708 -3.743571 11.048261
2266127736325 6.154938 -2.672783 11.599208
2266147741065 8.475976 -1.558924 11.924931
2266167762367 11.039288 -0.509671 9.826426
2266187811898 13.880166 1.461716 7.888538
2266207833148 14.162818 2.201995 5.960222
2266227822003 12.845570 2.103889 4.089334
2266247843253 11.997313 1.744368 3.169294
2266267915284 12.119647 2.003092 3.626921
2266287936534 12.617952 2.427219 4.585247
2266307907680 12.409477 2.966203 3.406482
2266327928930 12.879068 3.581756 1.978864
2266347981638 12.826128 3.569792 1.605285
2266368002940 12.129218 3.140879 2.110769
2266388027471 12.059826 3.124129 2.582454
2266408048721 12.586845 3.375674 2.237588
2266428064971 12.613167 3.440281 1.763211
2266448086221 12.275180 3.299104 2.113162
2266468088617 11.745769 3.128915 2.620739
2266488109867 11.053644 2.951846 2.774179
2266508124659 10.112068 3.011666 2.918047
2266528145909 9.233006 3.119344 2.697608
2266548167680 8.538488 3.090630 2.285445
2266568188982 8.504690 3.272783 1.811068
2266588245180 8.497512 3.387639 1.435095
2266608266430 7.673483 3.189034 1.468595
2266628275596 6.722635 3.030809 1.657927
2266648296846 6.669993 3.112165 1.741676
2266668297107 6.782456 3.251248 1.636392
2266688318409 5.788238 3.128915 1.643570
2266708336430 4.425226 2.764907 1.224228
2266728357732 3.232404 2.503790 0.764507
2266748417211 1.033400 1.584049 -0.421436
2266768438513 -2.370689 -0.924228 -2.701796
2266788437055 -6.716055 -5.341378 -2.266003
2266808458357 -10.714163 -16.240686 6.815357
2266828474190 -5.673981 -25.501806 35.019855
2266848495440 11.099108 -25.973791 75.182190
2266868518096 32.560333 -27.952356 70.769821
2266888539346 21.162422 -17.586946 17.518454
2266908549919 -10.819447 -8.354839 -14.578571
2266928571221 -7.482656 0.905982 -2.761915
2266948588930 7.005287 8.511569 3.720540
2266968610232 7.486843 10.415956 0.098405
2266988667471 4.180860 8.109276 -4.345067
2267008688721 1.574776 5.505287 -2.680260
2267028707732 2.992823 3.440281 0.189332
2267048729138 2.928217 2.084448 1.054338
2267068719190 2.286043 1.811367 0.876970
2267088740596 1.236790 1.370788 0.088834
2267108796898 -0.056530 0.760020 -1.405783
2267128818305 -1.675873 0.429213 -3.875774
2267148813044 -3.328715 -2.162513 -8.209176
2267168834450 -1.826920 -9.181260 -7.409076
2267188861898 2.437090 -21.728924 4.731209
2267208883305 10.459626 -30.532118 44.443390
2267228912888 24.358038 -23.899214 78.914391
2267248934294 26.470900 -30.374191 58.013985
2267268936950 8.030612 -32.659336 24.793531
2267288958357 5.838786 -19.977676 22.254148
2267309007055 11.386545 -8.412267 14.016257
2267329028409 8.845069 -2.603391 -3.822833
2267349021378 12.629916 2.084448 -12.734004
2267369042784 16.773985 5.541179 -13.196417
2267389082419 14.474483 8.324929 -13.848162
2267409103825 11.192428 6.717550 -13.371392
2267429136013 5.963213 3.442973 -8.659326
2267449157419 1.534098 1.289432 -2.193919
2267469166013 -0.011067 0.817448 2.024328
2267489187419 -0.837488 1.904986 4.173083
2267509197107 0.005683 2.891726 4.623531
2267529218513 1.205683 1.624727 3.660420
2267549235232 1.313660 -1.067797 2.937190
2267569256638 2.396412 -4.292126 4.762315
2267589309659 4.530810 -6.599106 11.745170
2267609331065 5.596812 -7.914261 15.963717
2267629345232 4.593023 -7.351349 14.864214
2267649366638 4.063611 -6.036194 14.818750
2267669390648 5.460122 -5.085047 16.957933
2267689412055 5.445765 -4.574778 15.170794
2267709421273 5.364409 -3.817749 11.740384
2267729442680 7.424330 -3.075375 10.906785
2267749477836 10.368400 -2.232204 12.066108
2267769499242 10.916954 -1.463211 12.032608
2267789515336 9.494123 -1.314557 10.585847
2267809536742 8.665308 -0.931406 9.366405
2267829553617 9.384052 -0.174377 8.520842
2267849575023 9.771989 0.522832 7.593922
2267869595753 9.752846 0.917947 6.879963
2267889617159 9.410374 0.996910 6.214160
2267909640805 9.058030 0.891626 5.296513
2267929662211 9.295218 0.920339 4.913362
2267949693148 9.393623 0.649651 4.836792
2267969714555 9.752846 0.673580 5.100301
2267989726742 10.109675 0.791127 5.902794
2268009748148 10.203295 0.620937 6.468099
2268029779919 10.692029 0.692722 6.561419
2268049801325 10.770992 0.836591 5.907580
2268069817055 11.714662 1.502393 4.609175
2268089838461 13.211970 2.700300 2.968297
2268109853773 13.813167 3.303890 1.116551
2268129875180 12.543475 2.695515 -0.160319
2268149884815 10.004392 2.206781 0.489033
2268169906221 7.702197 2.501397 1.296312
2268189941638 6.095118 2.757728 0.608674
2268209962992 3.924528 2.367399 -0.368794
2268229979815 0.923031 1.382752 -1.324427
2268250001169 -3.427120 0.469891 -3.149852
2268270027732 -8.601300 -1.903790 -6.541977
2268290049138 -12.489038 -7.717751 -6.817451
2268310070180 -14.697913 -17.706888 0.865005
2268330091586 -13.689339 -29.775387 18.083757
2268350078253 -2.818745 -35.160435 45.876095
2268370099659 19.272392 -32.927631 69.624855
2268390161013 35.173595 -29.001608 65.061447
2268410182419 16.196718 -30.371799 16.006786
2268430202159 -13.663017 -16.782063 -8.086843
2268450223565 -2.033002 -9.959826 12.343974
2268470228461 12.629916 0.115454 14.416159
2268490249867 12.584453 9.975378 -1.782055
2268510262211 8.389834 12.632010 -12.779767
2268530283617 5.637490 8.897412 -10.202099
2268550319607 3.246761 2.038984 -1.219143
2268570340961 2.621636 0.616152 4.189833
2268590409659 3.824030 2.470290 2.256731
2268610431065 4.109075 2.415255 -0.263211
2268630439190 2.786741 0.362214 1.116551
2268650460596 0.915853 -0.964906 3.828217
2268670452628 -1.247259 -1.194916 2.764607
2268690473982 -5.954240 -3.024827 -5.475975
2268710503669 -8.299505 -9.945468 -8.769695
2268730525023 -1.848456 -26.821747 5.356633
2268750551534 18.218353 -35.339897 54.113983
2268770572940 34.121948 -21.218655 78.914391
2268790573148 30.536007 -34.235611 48.424747
2268810594503 16.750057 -27.473194 19.686350
2268830623253 9.506086 -13.742280 15.978073
2268850644659 11.290833 -7.279265 7.026225
2268870665700 16.268501 0.465105 -4.852943
2268890687107 18.518055 8.521140 -9.797412
2268910722003 16.340286 9.666406 -11.629716
2268930743461 9.925428 7.060023 -10.372288
2268950764659 4.010969 2.539682 -6.367002
2268970786065 -1.522732 -0.610469 -1.762912
2268990811221 -5.120640 -1.324128 1.686641
2269010832628 -5.412864 -0.756431 3.617350
2269030837367 -4.035495 -0.651147 4.403093
2269050858721 -3.077170 -1.108475 6.257231
2269070874190 -2.432902 -2.179263 8.250154
2269090895544 -2.167000 -2.512464 8.092227
2269110952471 -0.147757 -3.142374 6.884749
2269130973825 2.827419 -3.456133 7.476374
2269150961221 5.934499 -3.803392 9.488738
2269170982575 7.855637 -4.677969 11.354840
2269191020596 7.913064 -4.627420 10.732109
2269211041898 9.623633 -3.441776 9.601201
2269231073825 14.067105 -1.235594 10.461421
2269251095232 16.946568 0.680758 10.823036
2269271107263 15.320047 -0.025723 7.476374
2269291128565 12.605988 -0.567099 4.896613
2269311136586 11.034502 -0.535992 4.106084
2269331157940 10.327722 -0.121735 4.657031
2269351160440 10.100104 0.419641 5.267799
2269371181794 9.719346 0.520439 4.808078
2269391204294 9.671490 0.620937 4.206582
2269411225700 9.709775 0.570688 3.490530
2269431236586 10.176973 0.640080 3.215056
2269451257940 10.457233 0.563510 3.320341
2269471298044 11.008181 0.580260 4.118048
2269491319398 11.048859 0.551546 4.786243
2269511331638 11.012966 0.328714 5.239085
2269531352992 11.587842 0.469891 5.615356
2269551377836 12.090933 0.932304 5.612964
2269571399190 12.450155 1.167099 4.913362
2269591399294 12.308979 1.394717 3.837788
2269611420648 12.031113 1.761117 3.121437
2269631441586 11.563913 2.010270 2.824428
2269651462940 10.936097 2.012663 2.896213
2269671500857 10.078569 1.955235 2.982653
2269691522211 9.843773 1.971985 2.656930
2269711540492 9.877572 2.111068 2.481955
2269731561846 10.085748 2.319243 2.455634
2269751595023 9.067901 2.055734 2.446063
2269771616378 6.715457 1.444966 2.326123
2269791604450 4.039683 1.045065 2.201696
2269811625805 1.581955 0.692722 1.854438
2269831674555 -1.613660 -0.131306 0.457627
2269851695909 -6.119644 -1.975873 -2.069493
2269871708357 -11.624332 -5.274379 -3.774977
2269891729711 -16.027126 -12.832109 4.153940
2269911748513 -14.058132 -23.987747 18.953249
2269931769867 -1.675873 -36.521053 33.687950
2269951794294 21.107388 -41.908493 58.794941
2269971815648 41.052162 -28.385756 77.685677
2269991801169 24.530619 -24.435804 31.744980
2270011822471 -14.113167 -19.527527 -9.385248
2270031891065 -8.503195 -9.921540 8.017751
2270051912419 14.081462 1.550250 17.185253
2270071903982 14.986846 7.591828 2.623132
2270091925284 10.049855 8.387142 -8.230712
2270111967211 4.861318 4.755436 -7.145566
2270131988513 2.652743 2.314458 -2.771487
2270152020075 2.846562 2.556432 -3.135495
2270172041378 0.082253 1.971985 -6.824629
2270192086273 -0.799203 0.010169 -7.430612
2270212107628 -0.058923 -1.350449 -2.062314
2270232130857 0.793819 -0.972084 2.110769
2270252152159 -1.045963 -1.058226 -2.033600
2270272177940 -6.569794 -5.446662 -8.477471
2270292199242 -10.718948 -20.665314 -7.948060
2270312189086 -5.499005 -50.352467 9.967901
2270332210388 4.499703 -63.592255 61.345989
2270352268096 18.302401 -40.063927 78.914391
2270372289398 24.755844 -48.903313 39.925743
2270392302315 -5.528018 -32.257046 -9.054740
2270412323617 -5.877670 -13.533805 3.698706
2270432349867 15.703197 -1.702792 13.208980
2270452371169 16.038492 4.336393 1.993221
2270472378930 9.348160 6.065805 -9.342177
2270492400232 6.439983 5.866902 -9.093025
2270512406325 4.401298 4.650152 -5.772984
2270532427628 2.755634 3.622434 -3.595515
2270552449607 1.481157 3.208177 -3.525824
2270572470909 0.784248 3.026023 -3.571587
2270592532159 0.384048 2.441576 -2.809772
2270612553513 0.122931 0.484547 -1.746162
2270632578617 -0.643370 -2.526821 -0.560220
2270652599919 -0.420838 -4.991727 0.524925
2270672616950 1.615454 -6.265905 0.718744
2270692638253 5.462515 -7.296015 0.076869
2270712659971 11.161322 -9.449555 1.030409
2270732681221 17.027924 -12.431911 3.744468
2270752696325 22.489542 -13.452449 7.184151
2270772717575 25.682764 -10.618749 12.571591
2270792711221 25.469503 -4.922335 17.681164
2270812732523 22.125534 -2.596213 17.801105
2270832733409 16.316359 -6.261119 10.394122
2270852754711 12.344872 -7.779963 4.750351
2270872780440 10.672587 -5.085047 3.643671
2270892801742 10.354043 -2.603391 4.218546
2270912819763 10.876276 -1.278665 4.796114
2270932841065 11.027323 -0.430708 3.868895
2270952870648 11.118251 -0.064008 2.386242
2270972891950 10.579268 -0.746860 1.598106
2270992909242 10.560124 -0.931406 1.933401
2271012930544 10.447661 -0.833001 2.814857
2271032963357 10.560124 -0.885943 3.593421
2271052984659 11.226227 -0.602991 4.077370
2271073003305 11.695518 -0.286840 4.182654
2271093024607 12.157932 -0.279661 4.374379
2271113049763 12.246467 -0.162413 4.235296
2271133071117 12.311372 -0.052044 4.031906
2271153097732 12.006885 0.163310 3.986443
2271173119086 11.163714 0.233001 3.564708
2271193132992 10.495519 0.496511 3.032903
2271213154346 9.472587 0.625723 2.625525
2271233173461 8.619844 0.767199 2.230410
2271253194815 8.116754 1.016351 1.959722
2271273221950 7.470093 1.277169 1.890330
2271293243305 6.557231 1.344467 1.823032
2271313269450 5.761917 1.301396 1.734497
2271333290753 4.619344 1.255634 1.095015
2271353303617 2.880360 1.045065 0.160618
2271373324971 0.166301 0.640080 -0.500399
2271393353825 -4.718347 -1.798505 -2.814558
2271413375180 -13.143177 -8.580064 -4.141677
2271433391742 -22.099812 -22.464417 8.111370
2271453413096 -16.858631 -40.035213 37.350468
2271473434659 10.550553 -51.198029 74.530739
2271493456013 48.260242 -43.312183 78.914391
2271513476482 34.665718 -24.023640 22.129721
2271533497836 -15.833307 -13.045370 -22.114765
2271553512471 0.343370 -2.268097 5.797211
2271573533773 20.798414 12.454642 10.456336
2271593550440 15.039787 11.546865 -3.070889
2271613571742 6.899704 6.041877 -6.091528
2271633600336 5.187041 3.962514 -1.872982
2271653621638 4.676772 1.698904 0.560818
2271673642732 1.732703 1.121636 -0.605982
2271693664086 -1.436292 0.086740 -3.327220
2271713688148 -3.233002 -2.866901 -3.219244
2271733709450 -3.807878 -2.610569 -1.695913
2271753728825 -6.763911 -2.998506 -4.043272
2271773750128 -13.789837 -12.266806 -3.942774
2271793768669 -15.469000 -29.514271 4.362415
2271813789971 -2.569592 -53.325249 24.058037
2271833833773 23.009382 -63.316780 65.303421
2271853855075 47.361736 -42.001816 78.914391
2271873861638 29.137102 -38.758343 38.174496
2271893882992 -15.567405 -34.175789 -0.629911
2271913903357 2.836990 -18.288942 13.568202
2271933924659 26.135605 -0.442672 14.809179
2271953965544 17.942881 4.904090 -4.244568
2271973986898 12.134004 4.975875 -15.218352
2271993991898 9.719346 4.983053 -14.274384
2272014013253 7.213762 4.755436 -10.824831
2272034027888 4.444369 4.300500 -8.050951
2272054049242 1.241875 3.081058 -6.355038
2272074062419 -1.323829 1.926521 -3.753441
2272094083773 -3.168396 0.716650 1.145265
2272114138409 -3.963711 -0.907478 7.466803
2272134159763 -3.783950 -1.877468 12.931112
2272154146325 -3.221038 -1.499103 16.950756
2272174167680 -2.126322 -0.329910 17.146967
2272194217367 -1.179961 1.088136 15.065511
2272214238669 -1.010070 1.670190 13.520346
2272234253565 -1.182353 1.598405 13.057932
2272254274867 -1.160818 1.617548 12.569199
2272274276117 -0.978964 1.691726 11.989537
2272294297419 -1.112962 1.878665 10.904392
2272314308513 -1.218545 2.091626 9.230014
2272334329815 -1.366900 2.290529 7.605886
2272354378930 -2.126322 1.866701 6.005686
2272374400232 -2.363511 1.435395 4.549354
2272394422419 -2.123929 1.351646 3.162115
2272414443721 -0.466301 0.750449 2.678466
2272434450805 2.482553 0.378963 1.782354
2272454472107 7.740781 1.648655 0.936790
2272474490805 15.454045 3.708576 0.024227
2272494512107 21.169601 5.045267 0.148654
2272514534763 19.226929 4.858626 0.977468
2272534556065 13.846666 2.925525 0.084048
2272554610440 12.184253 2.956631 -1.235893
2272574631794 13.427624 4.108776 -1.154537
2272594627419 13.020246 4.357928 -1.736591
2272614648721 11.410474 4.041777 -1.954637
2272634674398 10.291829 3.780660 -1.439582
2272654695753 9.628419 3.905087 -1.561616
2272674715961 9.216255 3.816552 -2.237289
2272694737211 9.154042 3.792624 -2.057528
2272714777315 9.422338 3.893122 -1.326820
2272734798617 9.223434 3.857230 -0.931705
2272754782211 8.828320 3.756732 -1.068096
2272774803513 8.330014 3.703790 -1.355534
2272794857940 7.666305 3.744767 -1.216750
2272814879242 6.221937 3.186641 -1.053739
2272834872419 2.705385 2.489433 -1.805983
2272854893721 -4.780560 -0.782752 -4.529613
2272874936742 -17.100307 -10.635498 -3.300899
2272894958044 -27.128029 -28.196722 17.470297
2272914987003 -17.787945 -45.142395 54.617073
2272935008357 16.491333 -59.165531 78.914391
2272955024659 59.775101 -37.172501 75.201332
2272975045961 23.124537 -17.414663 0.335593
2272995067107 -26.095526 -14.149657 -19.810478
2273015088357 7.814959 -0.811466 21.073290
2273035113357 18.656837 7.443174 16.564913
2273055134711 7.031609 4.721936 -3.430111
2273075141065 4.458726 5.189135 -5.116453
2273095162471 2.350948 3.780660 1.358525
2273115202732 3.507878 3.349354 2.829214
2273135224138 3.194119 3.294319 -1.441975
2273155229867 2.437090 2.328815 -2.833700
2273175251273 2.309971 0.714258 -0.059521
2273195247680 1.258625 -0.289232 0.278166
2273215269086 -4.811667 -1.379163 -1.413261
2273235320440 -19.840986 -5.492425 -2.232503
2273255341794 -29.494530 -19.788643 1.818246
2273275352263 -10.855339 -45.360142 21.427727
2273295373669 19.598413 -57.076595 63.954765
2273315405700 46.025345 -33.234211 78.914391
2273335427107 41.033020 -27.868607 60.172310
2273355440961 0.427119 -32.094032 2.582454
2273375462367 -25.659433 -19.628025 -6.786045
2273395483357 2.722135 -6.792924 17.336300
2273415504763 13.439588 2.158924 11.421840
2273435531065 8.490333 6.231209 -7.552646
2273455552471 5.577670 8.049456 -11.902797
2273475582471 5.014459 7.100701 -8.101200
2273495603878 4.662415 5.840581 -5.334499
2273515622055 2.302793 5.143672 -5.099703
2273535643461 -0.250648 3.150450 -4.706981
2273555658513 -1.275973 2.221138 -2.067100
2273575679919 -0.516551 1.068994 2.529812
2273595700336 0.432204 -0.976870 8.817850
2273615721742 0.482453 -2.890829 14.650954
2273635752315 -0.607478 -3.408277 18.043079
2273655773721 -1.316651 -2.761317 18.047865
2273675783565 -1.077069 -1.424926 14.763416
2273695804971 -0.288933 0.081954 11.697313
2273715843878 -0.087637 0.518046 10.739287
2273735865284 -0.602692 -0.107378 11.309377
2273755880596 -0.658026 -0.224626 12.001501
2273775901950 -0.509372 0.184846 11.153544
2273795924034 -0.504586 0.570688 9.785748
2273815945388 -0.736989 0.630509 9.167801
2273835937784 -0.880559 0.482154 9.057432
2273855959138 -0.708275 0.457926 8.892327
2273875998669 -0.279362 0.561117 8.310273
2273896020075 0.144467 0.469891 7.373483
2273916033253 1.517349 0.510868 6.568597
2273936054659 3.874279 0.834198 5.373383
2273956084086 6.741778 0.939482 4.966004
2273976105492 9.980463 1.030708 5.131408
2273996125596 13.161721 1.715654 5.485845
2274016147003 15.504294 2.285744 5.516952
2274036193825 15.602699 1.955235 5.447560
2274056215232 14.371293 1.485644 4.721637
2274076213565 12.984353 1.198206 3.754040
2274096234971 12.550653 1.447359 2.989832
2274116249294 12.704094 1.964806 2.659323
2274136270753 12.684951 2.180460 2.391028
2274156298253 12.426227 2.151746 1.689034
2274176319711 12.244074 2.304886 0.757328
2274196340440 12.246467 2.717050 0.694816
2274216361846 12.270394 3.196213 1.102194
2274236380075 11.870494 3.486043 1.322633
2274256401534 10.957932 3.284747 0.972682
2274276438513 9.690633 3.193820 0.402592
2274296459971 8.147861 2.961417 -0.169890
2274316463617 6.681957 2.645265 -0.934098
2274336485023 4.827819 2.221138 -1.750948
2274356496378 1.713560 1.526322 -1.758126
2274376517784 -4.215256 -0.732503 -2.268396
2274396540544 -15.459429 -8.697312 -2.014457
2274416562003 -26.071598 -23.604597 12.035001
2274436581742 -22.772793 -42.648476 43.346283
2274456603148 3.083750 -59.910297 78.080795
2274476648617 50.406605 -48.397827 78.914391
2274496670075 40.446178 -18.748962 16.802101
2274516706430 -11.758630 -6.651748 -27.916763
2274536727888 1.996212 1.016351 7.157830
2274556722940 22.115963 13.017553 15.697814
2274576744346 12.672987 7.826624 0.661316
2274596770700 7.156035 4.496712 -4.953741
2274616792107 9.087043 5.158028 -1.664507
2274636807628 7.366903 4.025027 -1.312463
2274656829086 2.571088 2.209173 -5.116453
2274676852159 -2.164607 -1.772184 -6.982555
2274696873565 -3.745665 -4.809574 -3.360719
2274716893357 -6.387939 -3.695714 2.961118
2274736914763 -16.261921 -7.377670 4.889434
2274756948565 -21.644577 -16.188044 6.777072
2274776969971 -11.260324 -33.473793 14.591133
2274796990700 10.701600 -54.654762 34.456646
2274817012159 33.942490 -49.866123 72.573715
2274837026065 39.880875 -31.713274 76.516487
2274857047523 18.007786 -32.987751 23.248365
2274877071482 -12.012568 -22.315763 1.106980
2274897092940 -5.923133 -14.446667 18.730417
2274917103617 10.962717 -8.764610 18.672989
2274937125075 14.704194 -3.257230 4.434199
2274957153617 12.459726 2.812763 -9.541081
2274977175075 9.829416 7.210771 -13.608581
2274997204763 8.478369 7.967800 -12.195021
2275017226353 5.776274 7.661220 -9.830912
2275037250572 2.348555 6.084948 -8.046165
2275057271926 -0.039781 4.077669 -5.847161
2275077282447 -1.280758 1.636691 -1.159323
2275097303801 -2.064109 0.249751 5.303691
2275117339530 -2.150250 -0.691825 10.310373
2275137360885 -1.886741 -1.680958 11.062617
2275157366666 -1.302294 -2.850151 9.256335
2275177388072 -0.669990 -4.119843 9.651750
2275197407968 1.208076 -3.168695 10.683953
2275217429322 4.070789 -1.961516 11.187044
2275237449791 6.686743 -1.726721 11.194222
2275257471145 8.085647 -1.319343 12.732209
2275277503697 8.456834 -1.499103 14.538491
2275297525051 8.092825 -1.163809 13.098610
2275317560155 8.085647 -0.430708 10.420444
2275337581510 8.959925 0.594616 8.295617
2275357577603 9.283255 1.356431 7.162615
2275377598958 9.491729 1.579263 7.275377
2275397626926 10.097712 2.130210 7.160223
2275417648280 9.556335 2.007877 6.400801
2275437678020 9.185149 1.694118 5.653642
2275457699374 10.124033 2.338386 4.980361
2275477709791 11.501700 2.700300 4.642674
2275497731197 11.784352 2.729014 4.348058
2275517747187 11.391332 2.757728 4.383950
2275537768489 11.101501 2.669194 4.611567
2275557817030 10.888241 2.915953 4.558925
2275577838437 10.426126 2.959024 4.000800
2275597835885 9.762417 2.843870 3.365804
2275617857239 8.809176 2.623431 3.154937
2275637881718 8.171788 2.487040 2.927619
2275657903072 8.030612 2.453541 2.673680
2275677913905 7.920243 2.477469 2.711965
2275697935260 7.172785 2.439183 2.805285
2275717978124 6.092425 2.115853 2.285445
2275737999478 4.916353 1.773082 1.408774
2275758020676 3.127120 1.452144 0.699602
2275778042083 -0.638585 0.613759 -1.580758
2275798033020 -7.712666 -3.087339 -2.582155
2275818054426 -14.594723 -12.592528 9.821640
2275838091770 -8.510373 -24.845276 35.201710
2275858113124 14.563018 -31.528728 65.478096
2275878117812 40.170708 -27.037102 76.876007
2275898139166 22.199711 -17.898613 24.300011
2275918178905 -14.335999 -11.222338 -10.216455
2275938200260 -0.269791 -3.130410 8.520842
2275958243541 13.010674 5.186742 14.289339
2275978264895 8.634201 6.080163 -0.282353
2275998259166 5.196612 5.869594 -8.975777
2276018280520 4.082754 4.609474 -4.000201
2276038291510 5.316553 4.182953 0.500997
2276058312760 5.613562 2.659622 -0.639482
2276078330416 4.839783 1.071386 -0.509970
2276098351614 5.311767 0.400499 1.959722
2276118389426 5.661418 0.347857 6.079863
2276138410676 3.680460 1.893022 3.938287
2276158418958 -3.508476 1.143171 -6.908378
2276178440208 -10.168001 -5.156832 -10.796117
2276198500468 -10.795519 -14.858531 -2.083849
2276218521718 -4.938487 -32.656944 14.586348
2276238503385 7.860423 -39.649372 54.815979
2276258524635 25.503002 -27.247969 78.914391
2276278547447 32.723045 -32.841492 57.113087
2276298568697 8.835498 -30.086754 7.450053
2276318603853 -9.731909 -12.832109 -0.476471
2276338625103 7.690233 -1.899004 8.913862
2276358646510 14.876777 6.844370 1.001396
2276378667812 11.755340 11.168200 -10.223634
2276398692916 10.141082 9.757333 -10.338788
2276418714218 5.814559 6.128019 -6.508179
2276438752343 2.355734 3.128915 -3.049353
2276458773593 1.031007 2.705086 0.091226
2276478778853 -0.243470 2.333600 2.168196
2276498800103 -2.021038 1.526322 4.345665
2276518832916 -2.385046 0.098704 7.433303
2276538854114 -2.023431 -1.776970 12.542877
2276558860989 -2.054537 -2.660819 16.073786
2276578882291 -1.441077 -1.757827 16.423737
2276598914739 -0.789631 -0.543171 15.199509
2276618935989 0.137288 0.637687 13.553844
2276638949218 0.637986 1.519143 11.670993
2276658970468 0.417548 1.904986 9.883853
2276678993333 0.192622 2.086840 9.148658
2276699014478 0.329013 2.074876 8.952147
2276719038385 0.451346 2.077269 8.389236
2276739059583 0.745962 2.211566 7.596314
2276759069687 1.452443 2.388934 7.114759
2276779090937 2.439483 2.645265 7.241878
2276799106197 2.712564 2.268994 8.204690
2276819127447 3.241976 1.933700 8.669496
2276839161405 4.509274 2.436791 8.518449
2276859182655 6.034998 2.973381 8.544769
2276879219583 6.590731 2.786442 8.592925
2276899240833 6.286543 2.369792 8.616854
2276919261405 6.090033 2.204388 8.327023
2276939282655 6.408876 2.877369 7.313663
2276959279530 7.556235 2.896512 6.288338
2276979300780 8.531310 2.817549 6.195018
2276999325676 9.278469 2.870191 7.074081
2277019346926 9.050852 2.534896 7.227521
2277039367812 8.107183 2.496611 6.932605
2277059389114 8.341978 2.666801 6.671489
2277079414739 8.876176 2.923132 6.209375
2277099435989 8.861818 3.109772 4.939683
2277119467135 8.864211 3.387639 3.377768
2277139488489 9.113364 3.761517 2.975475
2277159501510 9.733704 3.749553 3.008975
2277179522812 9.019745 3.598506 2.752643
2277199558176 7.146464 3.095415 2.031507
2277219579478 5.268397 2.408077 0.625424
2277239582135 2.444268 0.628116 -1.571187
2277259603385 -5.314758 -6.680462 -1.858625
2277279624010 -12.949059 -18.367905 8.290832
2277299645312 -20.209780 -31.852058 38.282471
2277319668280 -14.594723 -37.349869 76.219475
2277339689583 17.552551 -37.378582 69.850082
2277359725624 10.584053 -22.198515 0.211167
2277379746926 -10.781161 -7.669894 -17.359928
2277399767708 6.018248 1.456930 6.333802
2277419789010 13.508980 9.225528 9.021540
2277439776458 7.323832 8.379964 -3.774977
2277459797760 3.251547 5.522037 -7.317850
2277479841145 2.997609 4.365107 -0.476471
2277499862447 6.095118 4.108776 3.492923
2277519898801 6.665207 2.918346 2.973082
2277539920103 5.048257 1.667797 3.066402
2277559929114 3.766602 0.731007 3.543172
2277579950416 3.670889 1.368395 1.784747
2277599977083 4.736592 2.072484 -1.197608
2277619998437 4.286443 0.853340 -2.373680
2277639974374 0.537488 -3.944867 -2.716153
2277659995624 -5.547161 -12.144472 0.278166
2277680046405 -12.352648 -26.483761 14.282160
2277700067655 -16.307684 -35.660835 45.641296
2277720120572 -7.945068 -33.057144 77.189766
2277740141822 13.851452 -30.980173 62.927048
2277760159062 5.155935 -26.203501 -0.907777
2277780180312 -17.213068 -10.824532 -14.506786
2277800174583 -3.415156 -5.437091 8.554341
2277820195937 9.530014 3.064308 13.948959
2277840211874 7.285547 8.224132 -1.106381
2277860233176 2.877967 7.675577 -9.385248
2277880258437 3.035894 6.973882 -4.426722
2277900279739 3.926921 5.476573 1.772782
2277920329739 2.868396 4.326821 1.760818
2277940351093 0.338584 2.439183 -0.354437
2277960354114 -2.478366 0.450748 0.457627
2277980375468 -3.046063 -0.241376 2.704787
2278000385103 -2.095215 -1.304986 4.477270
2278020406405 -1.237687 -2.807080 6.269196
2278040429947 -1.328615 -4.388138 9.958329
2278060451301 -1.721337 -5.312665 13.264014
2278080482864 -1.311865 -4.265805 12.511770
2278100504218 -0.174078 -2.869293 9.955936
2278120523645 2.178366 -2.014158 8.274081
2278140544895 4.087539 -1.745863 8.254939
2278160556197 5.230112 -1.686043 9.493524
2278180577447 5.548656 -1.319343 11.019547
2278200612551 5.877071 -0.940978 11.802598
2278220633905 6.102296 -0.665504 10.952249
2278240654530 6.454340 -0.145663 9.440882
2278260675885 7.010073 0.316750 8.370093
2278280721926 8.162217 0.716650 7.981858
2278300743176 9.118150 0.946660 7.744669
2278320758593 10.277472 1.083350 8.051549
2278340779843 11.118251 1.535893 8.688638
2278360793489 10.694422 1.775474 8.508878
2278380814791 10.289436 1.981556 7.188937
2278400843385 10.540982 2.369792 5.109873
2278420864687 11.357832 2.767299 3.071188
2278440887291 11.247762 2.556432 2.285445
2278460908593 10.936097 2.405684 3.298805
2278480912760 10.567303 2.784049 4.554140
2278500934062 9.887143 2.796013 4.127619
2278520979218 9.010174 2.594717 3.488137
2278541000468 8.548059 2.601896 3.274877
2278561003020 8.452047 2.601896 3.394518
2278581024322 8.205288 2.563610 3.576672
2278601035572 7.757531 2.475076 3.880859
2278621056874 7.429116 2.304886 4.027121
2278641085103 8.025826 2.352743 3.660420
2278661106405 8.777771 2.546861 3.265306
2278681126978 8.857033 2.575574 3.032903
2278701148280 8.607881 2.570789 2.862713
2278721185833 8.332407 2.546861 2.656930
2278741207187 8.234002 2.568396 2.374278
2278761219530 8.461619 2.709872 2.168196
2278781240780 8.940782 2.959024 2.125126
2278801260885 9.541979 3.260819 2.259124
2278821282187 10.521839 3.716053 2.592025
2278841305260 11.063215 4.130311 2.287838
2278861326562 10.759027 4.331607 1.868794
2278881342343 9.783953 4.262215 1.828117
2278901363645 8.710772 4.190132 1.856830
2278921398958 7.687840 4.065705 2.005185
2278941420260 6.880561 3.838088 1.787139
2278961427030 5.783453 3.241677 1.059123
2278981448280 4.398905 2.501397 0.328415
2279001474478 2.834598 1.028316 -0.699302
2279021495780 -0.013460 -2.792723 -0.981955
2279041508437 -4.263113 -10.590034 7.251449
2279061529791 -5.733801 -19.908285 35.072498
2279081551718 0.417548 -26.524738 68.788864
2279101573072 13.389338 -34.113575 68.034225
2279121585051 3.141477 -26.768806 12.907185
2279141606405 -12.530016 -10.252048 -16.741682
2279161647499 7.944171 1.279562 -4.371388
2279181668853 15.569200 10.986047 -4.333103
2279201668958 9.978070 11.362318 -13.776078
2279221690364 4.667201 5.979664 -12.147164
2279241739166 2.566302 2.237887 -4.153641
2279261760468 7.323832 3.186641 -1.461117
2279281765208 9.678668 3.763910 -3.051746
2279301786562 8.797213 2.923132 -2.769094
2279321806562 8.009076 1.785046 0.167797
2279341827864 9.000603 0.961017 3.547958
2279361870103 10.502697 1.677369 4.937290
2279381891458 9.841380 2.257030 3.418446
2279401905572 5.694918 1.241277 -0.354437
2279421926874 0.027218 -2.938685 -4.520042
2279441934947 -3.108576 -11.119147 -1.666900
2279461956301 -1.858027 -22.869102 16.965113
2279481993905 10.229616 -26.318657 57.712189
2279502015260 36.872200 -22.974388 78.914391
2279522024478 44.880081 -28.361828 50.568718
2279542045833 26.734409 -17.936897 12.722638
2279562089270 0.168694 -5.856433 -3.137888
2279582110624 0.091825 -0.559920 0.575175
2279602101562 12.344872 7.438388 -4.191926
2279622122864 15.727126 13.676178 -12.190235
2279642152864 13.278969 11.719148 -11.119447
2279662174218 4.811069 5.107779 -6.539584
2279682208801 -1.798206 0.005384 -1.595115
2279702230155 -2.900101 -1.022334 2.745465
2279722232551 -1.141675 -0.725324 5.624928
2279742253905 -0.073280 -1.714756 6.808178
2279762286510 0.115753 -3.940082 8.070692
2279782307864 -0.612264 -6.658926 12.241082
2279802300208 -2.037788 -7.866106 15.144474
2279822321614 -3.870091 -7.641180 13.848461
2279842379791 -4.447659 -6.857830 11.872289
2279862401145 -3.822235 -6.213263 10.581061
2279882404739 -2.598306 -5.595317 10.456336
2279902426093 -0.839881 -4.951049 11.369198
2279922439947 -0.231506 -4.512564 11.184651
2279942461301 -0.003888 -4.019045 10.566705
2279962509114 0.065504 -3.583252 10.164112
2279982530468 0.338584 -3.125625 9.701999
2280002525416 1.541277 -2.627319 10.075578
2280022546770 2.762813 -1.966302 10.878071
2280042564478 3.206083 -1.800898 10.523634
2280062585833 3.658626 -1.745863 10.837393
2280082639426 3.690032 -1.772184 10.875678
2280102660728 4.027719 -1.812862 10.868500
2280122659947 4.789534 -1.561317 11.299806
2280142681301 5.282754 -1.467997 11.074581
2280162717030 5.381159 -1.388734 10.595419
2280182738333 5.220541 -1.178166 10.334302
2280202764895 5.330910 -0.943370 9.507881
2280222786145 5.929714 -0.397209 7.845467
2280242791978 6.296114 0.053240 6.439385
2280262813333 7.501200 0.223430 5.941080
2280282838437 8.749057 0.982553 6.235696
2280302859791 8.629416 0.846162 6.134898
2280322882968 8.313264 0.757627 6.290731
2280342904322 8.286943 1.064208 6.163911
2280362922916 8.524132 1.409073 5.009075
2280382944270 8.593523 1.593620 3.238985
2280402963749 8.662915 1.631905 2.043471
2280422985051 8.615059 1.885843 1.753640
2280443006405 8.641380 2.094318 1.748854
2280463027708 8.741879 2.484647 1.629213
2280483034739 8.799605 2.920739 1.010968
2280503056041 7.740781 2.807977 -0.066999
2280523095728 2.077867 1.100100 -2.323431
2280543117083 -8.936594 -5.863612 -5.363213
2280563141197 -18.647865 -16.415661 0.455234
2280583162499 -19.491035 -27.363123 29.296824
2280603178124 -8.553444 -38.480476 72.755569
2280623199478 23.644379 -39.637405 78.914391
2280643218905 14.531911 -28.706993 18.148363
2280663240155 -24.981667 -19.558634 -23.346172
2280683276301 3.524628 -2.629712 1.313061
2280703297551 19.399511 14.004593 6.839285
2280723322812 9.829416 12.040086 -5.066204
2280743344114 3.627519 7.127022 -4.721338
2280763348437 3.263511 5.457430 2.103590
2280783369739 4.770391 5.411967 2.330908
2280803390103 4.537988 4.721936 -0.445364
2280823411405 3.220440 3.955336 -2.567798
2280843433437 4.236193 2.949453 -4.280461
2280863454791 4.224229 -0.303589 -5.068596
2280883493020 4.372584 -2.155335 -3.667300
2280903514374 4.624130 -3.937689 -0.392722
2280923521770 3.387938 -7.415956 3.291627
2280943543020 -1.206581 -13.430914 6.036792
2280963558176 -9.051749 -25.913671 19.022640
2280983579530 -10.467402 -36.281471 47.116772
2281003627916 -0.119043 -40.799122 69.339813
2281023649218 10.265509 -46.282574 48.063133
2281043637343 -2.033002 -37.229927 2.678466
2281063658645 -7.152147 -17.608782 -2.136492
2281083686145 8.044969 -2.308775 4.860720
2281103707499 15.813566 8.743972 -2.376073
2281123741614 16.903498 12.708580 -7.193423
2281143762968 16.797915 12.744473 -6.664011
2281163797343 11.001002 9.405289 -5.169095
2281183818697 4.272086 5.098208 -3.226422
2281203806978 -0.894916 2.779263 0.656531
2281223828333 -3.700201 1.981556 3.011367
2281243858749 -5.024928 1.845165 2.649752
2281263880103 -5.048856 2.458326 2.884248
2281283909687 -4.713562 2.376970 4.156333
2281303931041 -5.139783 0.532403 4.472485
2281323954895 -6.490830 -1.913361 3.883252
2281343976249 -6.179464 -2.790330 2.989832
2281363964166 -4.495515 -2.988935 2.335694
2281383985468 -2.595913 -4.100401 3.959822
2281404010051 0.257228 -5.274379 8.168797
2281424031405 1.483550 -6.510272 12.859029
2281444053020 1.349552 -6.558428 14.710774
2281464074374 3.102893 -4.225127 13.472488
2281484111353 7.905886 -0.996012 13.915460
2281504132708 10.950753 0.841376 11.362020
2281524142708 10.861919 1.092922 6.745965
2281544164114 10.981859 0.393320 4.012764
2281564186978 11.685947 1.272383 3.303591
2281584208333 12.711272 2.709872 3.785146
2281604228645 12.946068 2.908775 4.187439
2281624249999 12.236895 2.717050 4.949255
2281644269999 11.281261 2.662015 5.298906
2281664291353 10.864312 2.762514 4.578068
2281684323958 10.112068 2.611467 3.555136
2281704345312 9.225827 2.328815 2.587240
2281724374270 9.058030 2.252244 2.201696
2281744395624 9.362516 2.326422 2.199303
2281764402864 9.345767 2.304886 2.306980
2281784424166 9.795917 2.374577 2.314159
2281804450208 10.078569 2.448755 2.333301
2281824471562 10.028319 2.264208 2.391028
2281844478645 9.491729 2.113461 2.472384
2281864499999 8.921639 1.895415 2.354837
2281884536562 8.332407 1.710868 2.163411
2281904557916 7.687840 1.533500 1.959722
2281924592499 6.770492 1.382752 1.693819
2281944613853 5.687739 1.088136 0.891326
2281964623124 5.222934 -0.895514 -0.035593
2281984644426 5.728417 -3.990331 3.255734
2282004671614 4.873282 -6.728318 17.563917
2282024692968 4.482953 -10.805388 39.374794
2282044724843 10.325329 -15.270695 52.997730
2282064746301 17.777775 -17.790636 40.665722
2282084760416 2.149652 -7.890333 -2.519941
2282104781874 -14.058132 0.908375 -19.431814
2282124818176 -0.406481 4.666902 -5.686543
2282144839583 8.171788 8.765508 6.221339
2282164849114 6.583552 8.978767 -0.641875
2282184870572 3.230011 5.728118 -4.582255
2282204908593 5.594419 4.168596 2.105983
2282224929999 6.856633 2.139782 6.836893
2282244926249 6.078069 2.333600 9.605987
2282264947708 6.899704 2.980560 8.655139
2282284976666 7.275975 2.546861 2.479563
2282304998072 6.950253 1.938486 -0.203390
2282324991926 3.174977 1.162314 0.584746
2282345013333 -6.380761 -3.245266 -2.356930
2282365068905 -14.166108 -16.406090 -0.303888
2282385090312 -8.984451 -38.710487 22.146471
2282405099583 2.866003 -51.813583 66.410103
2282425121041 16.692631 -44.845085 78.914391
2282445129166 34.778481 -42.231823 57.561142
2282465150624 11.846566 -21.316759 -19.776978
2282485168333 -14.151752 -1.237987 -23.578575
2282505189791 5.295017 1.511965 10.082756
2282525230468 12.279965 6.384350 15.994823
2282545251874 6.396912 4.446463 4.647460
2282565272968 2.698207 4.206882 -3.501896
2282585294374 1.720739 5.198706 -5.176273
2282605325155 1.256232 4.889733 -2.838486
2282625346562 1.553241 4.978268 -0.603590
2282645334635 1.172184 4.381856 -0.421436
2282665356093 -0.540479 2.932703 -1.317249
2282685411301 -1.647159 1.272383 -0.380758
2282705432708 -1.848456 -0.390030 2.156232
2282725460624 -0.782453 -1.779363 6.492027
2282745481978 0.005683 -2.809473 10.370194
2282765493072 -0.260219 -3.056233 11.105688
2282785514478 -0.483051 -2.852544 9.603594
2282805532603 0.144467 -2.311167 7.840682
2282825554010 1.874178 -1.407877 6.233303
2282845554530 4.217051 -1.166202 5.675177
2282865575989 5.857929 -0.399601 5.224728
2282885626562 9.683455 -0.545564 5.811568
2282905647968 13.384553 0.276072 7.730313
2282925644010 15.310475 1.169492 9.033504
2282945665416 16.163218 1.574477 8.152048
2282965690624 16.036098 1.945664 6.520741
2282985712030 15.250356 2.697907 5.100301
2283005735364 14.380864 3.035595 3.372983
2283025756822 13.336397 3.169593 2.922833
2283045767395 12.165111 3.236891 2.927619
2283065788697 11.415259 3.313461 2.771786
2283085814843 10.684851 3.265605 2.544169
2283105836145 10.483554 3.124129 1.969293
2283125889010 10.490733 2.944667 1.813460
2283145910364 10.100104 2.647658 2.172982
2283165902551 9.978070 2.412863 2.690430
2283185923853 10.200902 2.340779 2.944368
2283205960260 10.047462 2.237887 2.900998
2283225981510 9.285647 1.823630 2.824428
2283245999530 8.835498 1.674976 2.685644
2283266020885 8.921639 1.828416 2.275873
2283286031510 8.593523 1.780260 2.333301
2283306052812 7.757531 1.519143 2.692823
2283326087551 6.562017 1.135993 2.371886
2283346108853 5.136792 0.699901 0.879362
2283366118645 3.649055 -1.475175 -0.519542
2283386139947 2.937788 -7.461419 0.893719
2283406198489 -0.303290 -12.199507 13.192229
2283426219791 -6.495616 -14.877674 35.977882
2283446212291 -8.201100 -19.549063 53.055161
2283466233593 3.131906 -26.134109 46.961239
2283486297291 3.979862 -20.554945 8.207083
2283506318593 -7.022635 -5.861219 -13.158132
2283526327916 -1.582553 3.840480 -8.941978
2283546349218 11.233405 9.845867 -8.925228
2283566371510 12.198610 12.317952 -7.449754
2283586392812 7.259226 6.877870 -3.379862
2283606418020 6.291329 0.752842 2.345265
2283626439322 6.272186 -1.544567 9.790533
2283646454843 5.541478 1.696511 13.482060
2283666476145 5.936892 4.051348 9.421740
2283686502760 5.872286 2.628217 4.633103
2283706524062 3.668496 0.544367 2.671287
2283726531614 -3.503690 -0.725324 -0.780658
2283746552968 -14.954245 -9.555139 -6.699903
2283766557343 -16.992630 -31.744381 5.854639
2283786578645 -6.823732 -53.754162 50.822655
2283806589166 19.828125 -43.106102 78.914391
2283826610520 51.836613 -35.912380 66.906013
2283846635208 27.280571 -24.320650 -12.731611
2283866656510 -22.602901 -9.325129 -29.150263
2283886700103 -9.655338 -5.525925 7.929216
2283906721405 5.486443 3.490829 15.958931
2283926723124 6.308079 4.264608 1.945365
2283946744426 3.883850 4.908875 -5.665008
2283966749895 2.712564 6.362814 -6.058029
2283986771197 2.774777 6.147460 -3.444468
2284006794322 2.619243 4.980660 0.117547
2284026815624 1.416551 3.747160 2.170589
2284046838958 0.163908 2.824727 2.156232
2284066860312 -0.310469 2.403291 1.914258
2284086885155 -0.379861 1.777867 1.983650
2284106906510 -0.672383 -0.114556 2.374278
2284126923333 -1.014856 -2.567499 2.750251
2284146944635 -0.911665 -4.929514 3.408875
2284166963228 -0.765703 -6.512665 5.217550
2284186984583 1.081257 -6.076872 7.356733
2284207022812 4.703093 -4.483850 7.881360
2284227044166 9.024530 -2.485844 6.400801
2284247059270 13.077673 -1.000798 4.628317
2284267080624 16.254145 0.230608 4.403093
2284287106978 17.653049 0.259322 3.107080
2284307128333 16.860128 -0.984048 1.641177
2284327136093 15.559628 -1.896611 0.654138
2284347157447 15.830317 -1.261915 0.682852
2284367206770 17.011175 0.453141 0.656531
2284387228124 16.913069 1.066601 0.713958
2284407254114 15.446867 1.076172 0.124726
2284427275416 13.619049 1.121636 -0.419043
2284447298645 12.287145 1.461716 -0.100499
2284467319999 11.238191 1.543072 0.349950
2284487329999 10.739885 1.483251 1.080659
2284507351353 10.670195 1.624727 1.624427
2284527361874 11.082358 1.751546 1.262513
2284547383228 11.036895 1.576870 0.953540
2284567399322 10.684851 1.176671 1.049552
2284587420676 10.284651 1.042673 1.078266
2284607471718 9.853345 1.033101 1.130908
2284627493072 9.434301 1.080958 1.200300
2284647507968 9.075079 1.088136 1.301097
2284667529322 8.306086 0.946660 1.595714
2284687546614 6.748956 0.393320 1.890330
2284707567968 4.992924 0.132203 1.437488
2284727578228 2.556731 -1.086940 0.031406
2284747599583 -0.559621 -4.711468 -0.117248
2284767606197 -2.907279 -11.514562 7.421340
2284787627551 0.796212 -20.571993 27.751957
2284807653541 14.352150 -22.469202 58.251175
2284827674895 32.778080 -18.918852 68.180191
2284847704322 30.936205 -19.958534 26.870201
2284867725676 7.814959 -13.505091 -7.928917
2284887741145 -4.514658 -4.749753 -7.624729
2284907762499 4.547559 2.458326 -0.751945
2284927779739 11.860923 10.315458 -1.353141
2284947801093 9.532407 11.127522 -7.547860
2284967833020 3.450450 6.985846 -14.135600
2284987854374 3.184548 3.366103 -11.996416
2285007863124 6.602695 0.158524 -3.446861
2285027884426 10.030712 0.350249 4.542176
2285047925833 10.507483 2.707479 5.945865
2285067947239 9.273684 3.311068 2.134697
2285087999426 3.797709 0.999303 -1.298106
2285108020833 -7.161718 -7.482955 -2.927020
2285128021353 -9.995419 -22.428226 8.583354
2285148042760 -1.457827 -40.277187 36.828232
2285168059322 11.465508 -37.335510 78.078400
2285188080728 24.422644 -30.211180 75.991859
2285208117655 18.927526 -34.096825 23.947668
2285228139062 -4.203292 -19.409979 -9.478569
2285248156926 -9.056535 -9.258130 -0.260818
2285268178333 3.524628 -3.254837 8.559127
2285288196510 8.665308 2.994917 3.742075
2285308217916 7.793423 6.619146 -5.382355
2285328257708 5.795416 8.341679 -11.315957
2285348279062 5.122435 8.614759 -9.553045
2285368272083 3.814458 7.230213 -4.757230
2285388293489 2.312364 5.265705 -1.010669
2285408344895 0.515952 3.411567 1.526023
2285428366301 -1.342972 2.043770 3.504887
2285448353593 -1.606481 1.210170 5.845068
2285468374999 -1.649552 0.601795 8.846864
2285488420572 -2.195714 0.091525 11.649457
2285508441978 -3.060420 -0.236590 12.497414
2285528471978 -3.273680 0.113061 11.388340
2285548493385 -2.689234 0.642473 10.509277
2285568511405 -2.030609 1.135993 10.113863
2285588532760 -1.659123 1.459323 9.510274
2285608556145 -1.534697 1.574477 8.607282
2285628577551 -1.525125 1.342074 8.336594
2285648580051 -1.570589 1.059422 8.144869
2285668601405 -1.309472 0.927518 7.402197
2285688592083 -0.435195 0.740579 6.544669
2285708613489 1.136292 0.561117 5.823532
2285728666353 3.639483 0.632902 5.234300
2285748687760 6.042176 0.618545 5.059324
2285768688124 8.780164 0.771984 5.461917
2285788709583 11.650055 1.660619 5.342276
2285808716458 14.191831 2.662015 5.069195
2285828737864 15.719948 3.277569 4.685745
2285848785937 15.224035 2.352743 4.010371
2285868807343 13.403695 0.834198 3.238985
2285888785572 11.566306 -0.020937 2.666502
2285908806978 11.024930 0.187238 2.369493
2285928865676 11.511271 0.889233 2.306980
2285948887083 11.908779 1.052244 2.798107
2285968895780 11.415259 0.925125 3.600600
2285988917187 10.696815 0.982553 4.074977
2286008934270 10.354043 1.358824 3.964608
2286028955676 10.073783 1.694118 3.320341
2286048999166 9.635597 1.912164 2.656930
2286069020572 9.180363 2.019841 1.878366
2286089012499 8.296515 1.792224 1.336990
2286109033905 6.358328 1.277169 1.610071
2286129089895 4.109075 0.841376 2.088934
2286149111301 1.715953 -0.025723 1.791925
2286169122603 -1.563411 -2.557927 -0.229711
2286189144062 -6.584151 -9.866505 1.617249
2286209160780 -3.906283 -23.697918 21.911674
2286229182187 7.386045 -33.176785 65.693748
2286249228385 34.639397 -33.603306 78.914391
2286269249843 41.013878 -32.213974 42.287457
2286289260572 -8.558229 -19.537098 -18.308384
2286309281978 -8.720942 -5.362914 -0.866800
2286329301041 13.801203 6.396314 11.663814
2286349322447 12.823734 9.388538 -4.234997
2286369346093 9.242577 10.157233 -12.235998
2286389367499 6.303293 8.734401 -7.718050
2286409387551 4.779963 6.822834 -4.083950
2286429408958 5.462515 4.889733 -3.279064
2286449444010 6.272186 3.464508 -1.276571
2286469465468 6.873383 3.037987 0.275773
2286489468385 6.463911 3.136093 -0.637089
2286509489791 5.405087 2.017449 -1.942374
2286529518385 3.471986 -0.255733 -0.521934
2286549539791 2.245365 -1.920539 2.678466
2286569564530 -0.389731 -4.203591 3.265306
2286589585937 -3.855735 -8.462815 4.980361
2286609605728 -8.747561 -17.627924 14.674882
2286629627135 -4.536193 -29.950064 32.056644
2286649625989 16.805092 -40.150070 57.585072
2286669647447 41.770908 -36.063427 69.100235
2286689681874 40.513180 -21.436699 40.162930
2286709703280 10.320543 -11.785250 2.493919
2286729732447 -3.918247 -5.980860 2.407778
2286749753853 8.514261 1.639084 7.967501
2286769769687 12.713665 7.328319 -1.741377
2286789791093 10.157831 9.704690 -8.877372
2286809782135 7.431509 7.146165 -9.026026
2286829803541 2.956931 4.858626 -7.789834
2286849859530 -0.782453 2.810370 -5.605187
2286869880885 -3.757629 2.254637 -3.696014
2286889897708 -4.742275 2.554039 -1.995315
2286909919114 -4.229613 3.270390 -0.042772
2286929945208 -3.187539 3.416353 2.970689
2286949966614 -3.072384 1.389931 7.692028
2286969982760 -3.288037 -0.217448 11.531910
2286990004114 -2.763411 -0.322732 12.281760
2287010024583 -1.206581 0.891626 11.271092
2287030045989 -0.094816 1.691726 9.955936
2287050057343 0.666700 1.794617 9.438489
2287070078697 1.021436 1.327717 8.753244
2287090107499 1.878964 0.965803 8.240582
2287110128853 3.924528 1.370788 8.949755
2287130125572 6.042176 1.926521 9.424132
2287150146926 8.337193 2.819942 8.566305
2287170191770 10.040284 3.267998 7.768897
2287190213124 11.635698 3.981956 7.361519
2287210248280 13.255041 5.277669 7.524530
2287230269635 12.706487 5.457430 6.195018
2287250279843 10.490733 4.599903 3.521637
2287270301197 9.470194 4.453641 2.477170
2287290305676 9.709775 4.580760 2.807678
2287310327030 10.162617 4.647759 3.090330
2287330318958 10.126426 4.403392 3.085545
2287350340312 9.721740 3.993920 3.203092
2287370368176 9.201899 3.675076 3.337090
2287390389530 9.070293 3.526721 3.392125
2287410427343 8.868998 3.303890 3.471387
2287430448697 8.159824 2.968596 3.519244
2287450474166 7.561020 2.712265 3.229413
2287470495572 7.386045 2.609074 2.836392
2287490505676 7.599306 2.611467 2.508276
2287510527030 7.810173 2.745764 2.170589
2287530551822 7.333403 2.589931 1.562214
2287550573176 6.360721 2.295315 0.651745
2287570600885 5.383552 0.884447 -0.773480
2287590622187 6.152545 -3.983152 4.187439
2287610640208 8.521440 -6.541678 29.349764
2287630661562 4.945067 -12.149258 53.728439
2287650671614 4.516453 -23.547169 54.483074
2287670692968 -5.017749 -15.548561 7.703991
2287690725728 -15.830914 -5.164011 -22.617857
2287710747083 2.988037 -0.509671 -6.089136
2287730769114 13.691133 9.577572 0.774078
2287750790520 9.376874 10.883156 -8.987741
2287770815833 4.286443 5.649155 -10.245170
2287790837187 3.177369 3.260819 -3.487539
2287810817603 5.541478 3.368496 -0.419043
2287830838905 6.806384 2.638087 -0.716052
2287850899010 7.936993 1.773082 1.008575
2287870920416 9.736096 1.308575 3.619742
2287890936614 10.133604 0.762413 3.147758
2287910957968 9.189935 -1.635494 1.545165
2287930972395 5.141578 -9.066405 5.557630
2287950993749 4.662415 -17.244474 24.635305
2287971029895 11.046466 -17.426628 59.041702
2287991051249 18.393328 -22.497917 73.771317
2288011077343 25.117458 -26.340191 46.244888
2288031098697 16.242182 -13.284951 2.323730
2288051091145 -8.040781 0.858126 -18.713369
2288071112395 -3.810271 1.109671 -4.083950
2288091173801 7.927422 5.749654 4.151547
2288111195051 9.525229 9.378967 1.904687
2288131203801 5.718846 7.483852 -3.432504
2288151225051 1.299303 4.861019 -5.751448
2288171252187 -1.762314 3.145664 -3.674478
2288191273385 -2.291726 2.429612 -0.826122
2288211292083 -1.460519 1.727618 0.896112
2288231313280 -0.701097 0.300000 1.734497
2288251254114 -0.159721 -1.949253 2.865106
2288271275312 1.751845 -4.306482 4.510770
2288291399843 4.854140 -5.705387 7.776075
2288311421093 8.717950 -4.529314 12.468699
2288331430260 10.866705 -2.603391 12.950255
2288351451458 11.856137 -0.847358 12.502199
2288371439426 12.323336 -0.533599 12.597912
2288391460624 11.077573 -1.077368 10.820643
2288411502187 10.009177 -1.836790 8.274081
2288431523437 9.875179 -1.841576 6.661917
2288451545051 10.128819 -1.043869 6.398408
2288471566353 10.040284 -0.308375 6.407979
2288491582968 10.021141 0.067597 6.125327
2288511604218 9.822238 0.235394 5.739783
2288531634114 9.417552 0.019741 5.775676
2288551655364 9.038888 -0.305982 5.799604
2288571662916 8.926425 -0.301197 5.835496
2288591684166 9.094221 -0.095414 5.984150
2288611721874 9.108579 -0.016152 5.818747
2288631743124 9.091828 -0.030508 5.593522
2288651751458 9.089436 -0.044865 5.330012
2288671772708 9.022138 -0.104985 5.258228
2288691793228 8.897711 -0.112164 5.229514
2288711814478 8.679665 -0.133699 5.129015
2288731842916 8.514261 -0.126520 4.944469
2288751864166 8.310871 -0.071486 4.887041
2288771888280 8.344371 0.103490 4.716852
2288791909530 8.263015 0.405284 4.383950
2288811947655 8.178967 0.795913 3.998407
2288831968853 7.678269 1.040280 3.260520
2288851979322 6.624230 0.635294 2.168196
2288872000520 5.670990 -1.309771 2.060220
2288892000155 4.894818 -6.646962 8.307880
2288912021405 5.371588 -9.835399 30.576086
2288932036770 9.434301 -14.295620 56.140705
2288952058020 17.531015 -22.188944 55.771610
2288972087030 7.661519 -17.659031 10.386944
2288992108228 -13.006487 -9.068798 -14.279169
2289012134687 2.204687 0.170489 -6.239883
2289032155937 13.894523 9.853045 -2.558227
2289052163124 11.170893 12.037692 -9.902697
2289072184374 6.154938 8.432606 -13.107882
2289092209478 1.083650 3.390032 -9.907482
2289112230780 0.961317 1.598405 -6.048458
2289132255833 4.490132 0.946660 -5.475975
2289152277135 7.922636 -1.055833 -4.812265
2289172294947 12.804592 -2.610569 -0.811765
2289192316249 17.068602 -2.330310 3.337090
2289212375624 20.618654 -0.813859 6.139684
2289232396926 21.251257 -1.767399 13.719249
2289252405416 15.528222 -9.837791 30.595228
2289272426666 9.316754 -16.032511 39.300316
2289292432395 9.537193 -19.309481 60.433426
2289312453593 11.635698 -25.420151 40.905304
2289332484530 -8.831310 -15.366408 -11.919547
2289352505833 -13.241282 -6.544071 -15.642180
2289372513280 7.187441 3.768696 -0.414257
2289392534583 12.076576 11.839088 1.602892
2289412580260 7.206583 11.058131 -7.059126
2289432601562 3.905386 8.583653 -8.805588
2289452607030 1.507478 6.164210 -4.476971
2289472628333 0.810569 4.899304 -0.553041
2289492612968 1.622633 4.276572 1.875973
2289512634218 1.534098 3.924229 2.980261
2289532714843 0.863211 2.918346 3.114259
2289552736145 -0.044566 -0.052044 4.003192
2289572739166 -0.466301 -3.403491 5.306084
2289592760416 0.252443 -5.980860 6.048757
2289612804218 2.003391 -7.497312 7.138687
2289632825520 4.025326 -8.592028 8.446664
2289652825937 8.021041 -7.341479 9.143872
2289672847187 14.201403 -4.282554 10.820643
2289692880624 19.665413 -0.250947 13.038790
2289712901926 21.655943 1.162314 14.483157
2289732924791 16.328323 -1.971088 10.638490
2289752946041 10.727921 -5.236094 5.751748
2289772962968 8.991031 -4.835895 3.215056
2289792984218 9.221041 -2.553142 2.330908
2289812981353 10.212866 -0.634397 3.195914
2289833002603 10.778171 0.644866 4.613960
2289853055989 10.596017 1.083350 5.136194
2289873077239 9.815060 0.541974 4.573282
2289893095208 9.146864 -0.236590 3.701098
2289913116510 8.871390 -0.605683 3.282055
2289933143385 9.041281 -0.620040 3.488137
2289953164687 9.266505 -0.639183 3.986443
2289973178905 9.771989 -0.653540 4.362415
2289993200208 9.997213 -0.550349 4.647460
2290013224426 9.891929 -0.840180 4.712066
2290033245676 9.755239 -0.890728 4.558925
2290053252187 9.331111 -0.964906 4.462914
2290073273541 8.833105 -1.154238 4.249653
2290093314739 8.397013 -1.134796 4.137190
2290113336093 8.167003 -1.053440 4.029513
2290133348385 7.944171 -0.924228 3.902395
2290153369791 7.644769 -0.852144 3.626921
2290173386301 7.433902 -0.852144 3.282055
2290193407708 7.117750 -1.098904 3.205485
2290213432187 7.323832 -2.181656 3.679563
2290233453541 8.821140 -5.034798 8.887542
2290253478437 10.109675 -8.884252 27.771099
2290273499791 11.422438 -14.501701 48.008099
2290293532291 13.408481 -23.659632 49.576893
2290313553593 11.082358 -24.028425 22.584656
2290333580989 -4.212863 -11.732608 -9.358928
2290353602343 -1.879562 -2.617748 -15.294922
2290373628124 11.319547 5.615655 -11.438291
2290393649478 14.426328 11.161022 -10.144670
2290413668437 9.800702 10.001699 -13.388142
2290433689791 5.170291 4.906483 -13.002299
2290453717655 2.817848 0.573081 -7.411469
2290473739062 5.170291 -0.136092 -3.406183
2290493745103 7.858029 -0.042473 -4.977669
2290513766405 10.368400 -2.771188 -7.593324
2290533772916 16.285252 -6.620641 -4.663910
2290553794322 23.754448 -4.512564 2.053042
2290573835989 28.631618 -0.825823 6.218946
2290593857395 32.215168 -0.785145 15.848561
2290613862343 23.845375 -5.614459 32.607594
2290633883749 12.962817 -16.054045 45.801617
2290653897499 15.839888 -17.249260 53.579784
2290673918905 6.001498 -21.518055 23.104498
2290693928541 -10.510473 -15.684953 -7.437790
2290713949947 -0.293719 -4.160521 -3.384648
2290734003176 12.093326 6.235995 -4.912764
2290754024583 11.982957 10.507183 -11.634501
2290774004478 8.655737 9.685548 -10.796117
2290794025833 5.136792 6.552146 -6.824629
2290814082760 1.636990 3.605685 -1.863411
2290834104062 0.113360 1.995913 1.796711
2290854122499 -0.135793 1.339682 4.300201
2290874143905 -0.562014 0.144168 6.087042
2290894155312 -1.144068 -1.678565 7.687242
2290914176666 -2.092823 -3.861119 9.230014
2290934231926 -3.362514 -5.413163 10.892427
2290954253333 -4.840381 -6.563213 12.717853
2290974199374 -6.505188 -6.704390 12.677175
2290994220728 -6.267999 -5.966503 11.539387
2291014286197 -5.048856 -4.927121 10.511670
2291034307551 -3.396013 -3.827320 9.354441
2291054327187 -1.604088 -2.857329 8.544769
2291074348593 -0.243470 -1.954338 8.427522
2291094390051 0.130110 -1.879861 8.647960
2291114411458 0.470489 -2.200799 8.976076
2291134412395 1.435694 -2.054837 8.712566
2291154433801 3.014358 -1.765006 8.566305
2291174457812 4.717450 -1.628316 8.168797
2291194479218 6.217152 -1.860719 8.029715
2291214506041 7.774281 -1.613959 9.131908
2291234527447 10.282258 -0.715753 10.224232
2291254560728 12.074183 -0.073878 11.026725
2291274582135 11.228620 -1.094118 9.586843
2291294613593 9.850952 -1.712364 8.365308
2291314634999 9.209077 -1.508675 7.831110
2291334659739 9.041281 -1.211666 7.368697
2291354681145 8.837891 -0.852144 7.095616
2291374681041 8.437691 -0.624826 6.999904
2291394702395 7.999505 -0.552742 6.879963
2291414719010 7.836494 -0.620040 6.470491
2291434740416 7.795816 -0.706182 5.988936
2291454784739 7.970492 -0.653540 5.744569
2291474806145 7.925029 -0.598206 5.622535
2291494809739 7.795816 -0.658325 5.545666
2291514831145 7.910672 -0.555135 5.399704
2291534852499 7.968100 -0.483350 5.418846
2291554873905 7.939385 -0.435494 5.574379
2291574895364 8.061719 -0.241376 5.550451
2291594916770 8.025826 -0.102592 5.229514
2291614934635 7.826923 0.077169 4.903791
2291634956041 7.651947 0.390927 4.467699
2291654976510 7.077072 0.556331 3.552743
2291674997916 5.436194 0.127418 1.964507
2291695004843 4.779963 -2.656033 0.491426
2291715026249 8.483154 -8.910572 10.533205
2291735046301 15.032609 -11.636596 42.464825
2291755067708 21.893131 -18.456738 69.620071
2291775084010 28.142885 -27.123543 52.010990
2291795105416 13.240685 -20.890537 5.301299
2291815148437 -5.060820 -8.474779 -14.674583
2291835169843 6.609873 0.165703 -10.266705
2291855187187 17.497515 8.363214 -10.264312
2291875208593 16.908283 11.834303 -14.255240
2291895234999 10.890634 7.836195 -14.839688
2291915256405 2.944967 1.684547 -10.843973
2291935266770 3.102893 0.894018 -5.645865
2291955288176 5.553442 1.560120 -5.839983
2291975292760 5.170291 -0.912264 -8.831908
2291995314218 7.893922 -4.134199 -7.670193
2292015355937 15.372689 -5.444270 -2.435894
2292035377343 23.059631 -3.415455 1.636392
2292055407760 25.397718 -4.208377 2.249552
2292075429218 22.662125 -12.877573 14.021044
2292095449530 11.513664 -15.411872 48.578190
2292115470989 9.817452 -20.428125 74.997940
2292135504635 20.084455 -25.403402 56.871410
2292155526093 14.095819 -24.910181 16.176977
2292175542916 0.887139 -9.471091 -8.561220
2292195564374 4.128217 0.433998 -6.474679
2292215574270 13.274183 7.565507 -9.356535
2292235595676 15.171392 12.421143 -13.325929
2292255617447 11.621342 10.368100 -11.006984
2292275638905 5.531907 4.441677 -5.756234
2292295659530 0.753141 1.315753 0.098405
2292315680989 -1.582553 -0.238983 4.149155
2292335691041 -2.607877 -1.352842 7.550851
2292355712499 -3.249752 -3.024827 10.523634
2292375746405 -4.806881 -4.524529 12.312867
2292395767864 -5.810671 -5.180760 13.587344
2292415798176 -6.661020 -4.778467 13.549059
2292435819635 -6.375975 -3.935296 11.984752
2292455833333 -4.914558 -2.737389 10.231411
2292475854791 -3.405585 -1.731506 9.158230
2292495873958 -1.953740 -0.993620 8.532805
2292515895416 -0.708275 -0.346959 8.453842
2292535903489 0.103789 -0.282054 8.671888
2292555924947 0.760319 -0.492921 8.614461
2292575975312 1.926820 -0.270090 8.278867
2292595996770 3.665804 -0.078664 8.192725
2292616002812 5.371588 0.184846 8.537591
2292636024270 6.950253 0.702293 9.277871
2292656042760 8.325228 1.253241 9.170194
2292676064218 8.995817 1.272383 7.483553
2292696086562 9.846166 1.080958 6.020043
2292716108020 11.417652 1.380360 6.156733
2292736132083 12.495619 1.823630 7.208079
2292756153489 11.635698 1.473680 7.296913
2292776176926 9.858130 0.707079 6.537490
2292796198385 8.641380 0.218644 5.804389
2292816220728 8.152646 0.321536 5.713462
2292836242187 7.865208 0.530010 5.751748
2292856260728 7.606484 0.494118 5.310870
2292876282187 7.680662 0.503689 4.788636
2292896302603 8.006683 0.508475 4.537390
2292916324062 8.274979 0.443570 4.556532
2292936347447 8.394620 0.376570 4.695316
2292956368905 8.593523 0.355035 4.918148
2292976401301 8.761021 0.462712 5.044968
2292996422760 8.741879 0.573081 4.810471
2293016436145 8.729915 0.666401 4.242475
2293036457603 8.655737 0.965803 3.315555
2293056472083 8.871390 1.550250 2.019542
2293076493541 9.391231 2.494219 0.397807
2293096501562 9.472587 2.319243 -1.120738
2293116523020 6.324829 0.771984 -1.341177
2293136551666 3.522235 -3.812963 -0.098106
2293156573072 5.326124 -9.557532 13.678271
2293176597812 13.528122 -11.322837 39.774693
2293196619218 16.975283 -16.245472 65.322563
2293216668749 24.084957 -25.583162 58.672611
2293236690155 13.995320 -20.432911 13.489239
2293256689843 -8.699406 -9.408877 -12.719647
2293276711249 4.983352 -1.601995 -4.965705
2293296729999 16.352551 9.144172 -7.049555
2293316751405 12.083755 10.840085 -15.515361
2293336762551 6.401698 5.507679 -14.705689
2293356783958 4.315156 2.788835 -7.416255
2293376825937 5.637490 2.923132 -3.327220
2293396847343 6.803991 2.942275 -3.054139
2293416867343 6.396912 1.971985 -2.582155
2293436888749 7.409974 1.138385 -1.425225
2293456906770 8.023434 1.167099 0.711566
2293476928176 6.439983 1.308575 1.109372
2293496943958 4.159324 0.237787 -2.347359
2293516965364 5.488836 -3.271587 -5.049454
2293536949374 6.444769 -11.449955 2.486741
2293556970780 4.851747 -21.525234 26.654848
2293577038228 9.199506 -23.748167 68.120369
2293597059635 23.260927 -24.344578 78.914391
2293617085051 30.904800 -28.357042 41.185562
2293637106458 6.353542 -13.922040 -7.380363
2293657126926 -11.540584 -4.407280 -10.568500
2293677148333 5.354838 0.989731 1.864009
2293697161353 13.048959 8.468498 -1.583151
2293717182760 9.688240 10.526326 -8.740981
2293737210364 6.186045 7.989336 -9.148060
2293757231770 2.911467 4.528118 -3.791727
2293777246301 1.855036 2.745764 2.192125
2293797267708 0.374477 1.195813 5.313262
2293817286145 -1.335793 -0.044865 5.864210
2293837307551 -1.831706 -0.730110 6.659524
2293857329114 -2.080858 -2.052444 8.935398
2293877350520 -2.143072 -3.511168 11.103295
2293897403905 -1.999502 -3.827320 11.843575
2293917425260 -1.268794 -3.324528 12.039786
2293937418541 0.302692 -2.437987 10.461421
2293957439947 2.621636 -1.216451 8.384451
2293977457291 4.236193 -0.962513 7.541280
2293997478697 5.429016 -1.467997 7.440482
2294017499166 7.719246 -0.960120 10.001400
2294037520572 9.915857 -0.138485 12.320045
2294057547395 10.260722 -0.186341 11.098510
2294077568853 9.570692 -0.852144 10.372587
2294097595676 8.701200 -0.588634 8.544769
2294117617083 9.132506 -0.069093 7.962716
2294137628645 9.676275 0.213859 7.919645
2294157650051 9.400802 0.445962 7.603493
2294177673124 8.799605 0.383749 6.954440
2294197694530 8.555239 0.273679 6.786643
2294217699947 8.677272 0.240180 6.805786
2294237721353 8.892925 0.211466 6.753144
2294257780468 9.026923 0.019741 6.767501
2294277801874 9.002995 -0.004187 6.700501
2294297789062 9.271291 0.086740 6.494420
2294317810468 9.470194 0.230608 6.118148
2294337836874 9.443872 0.424427 5.639285
2294357858280 9.415159 0.683151 5.054539
2294377898958 9.319147 0.944268 4.546961
2294397920416 9.412766 1.198206 4.091727
2294417945155 9.295218 1.310968 3.564708
2294437966562 8.464012 1.411466 3.114259
2294457969062 7.354939 1.349253 3.325126
2294477990468 6.343971 1.061815 3.286841
2294498012812 5.206184 1.037887 2.448456
2294518034218 3.397808 0.776770 0.888934
2294538055885 1.284946 -0.612862 -1.080060
2294558077291 -1.625624 -5.214559 -1.058525
2294578109895 -4.088138 -12.345768 11.060225
2294598131301 -3.331108 -15.833607 43.380081
2294618147343 10.222438 -20.504696 70.674110
2294638168749 25.606194 -24.562624 49.991447
2294658188437 12.845570 -15.055042 2.637788
2294678209843 -6.900601 -2.196013 -10.832009
2294698183905 2.475375 2.455933 -0.181855
2294718205260 11.192428 8.923733 1.214657
2294738281041 8.272586 9.192028 -4.024129
2294758302447 3.615555 5.505287 -6.489036
2294778325051 2.164009 3.716053 -4.373781
2294798346510 3.308975 3.490829 -2.062314
2294818365989 3.721138 2.374577 -1.597508
2294838387395 3.119642 0.996910 -1.324427
2294858398697 3.687639 -0.025723 0.038584
2294878420103 5.570491 0.041276 2.613560
2294898424426 3.876672 -0.629611 0.256630
2294918445833 2.171187 -10.216156 2.460420
2294938483437 15.190536 -20.337198 27.665516
2294958504843 25.495825 -14.769997 69.433136
2294978524010 25.103102 -17.989540 74.846893
2294998545416 10.306187 -26.553452 14.952748
2295018567239 -16.702799 -12.736097 -14.399109
2295038588645 -7.916056 -4.339982 -0.006879
2295058611822 5.201398 3.742375 1.090230
2295078633228 7.148857 9.160921 -6.271289
2295098676822 6.437590 10.205389 -7.828119
2295118698176 4.439583 8.082955 -4.824230
2295138695989 2.413162 5.828617 -0.682553
2295158717395 2.089832 5.062315 2.292623
2295178740312 1.967498 4.381856 3.504887
2295198761718 1.910071 3.991527 4.427021
2295218789010 1.620240 3.244069 5.871388
2295238810416 0.805783 1.684547 7.270592
2295258825676 -0.401695 -0.157627 8.082656
2295278847083 -1.738386 -1.683351 8.592925
2295298866770 -2.775375 -2.418845 8.180761
2295318888228 -3.252145 -2.382952 7.105188
2295338924322 -2.737090 -2.150549 5.548059
2295358945676 0.710070 -2.469094 3.212663
2295378954166 7.453343 -3.283551 3.418446
2295398975572 15.981064 -1.613959 9.481560
2295418984010 22.329224 1.337289 16.265511
2295439005416 19.694126 -0.085843 16.114464
2295459036353 12.804592 -0.866501 12.648460
2295479057760 9.235398 -1.427319 9.675677
2295499078853 8.641380 -1.022334 6.621239
2295519100260 9.134899 0.714258 5.339883
2295539131353 9.302397 1.857129 5.025825
2295559152708 8.763413 1.998306 4.755137
2295579154895 8.202895 1.665405 4.290630
2295599176301 8.088039 1.538286 3.809075
2295619214322 8.059326 1.531107 3.430410
2295639235624 8.475976 1.325325 2.965904
2295659262030 8.840283 1.236491 2.817250
2295679283437 9.340981 1.057029 2.826821
2295699307551 9.690633 0.929911 3.111866
2295719328958 9.968499 0.870090 3.634099
2295739329426 10.160224 1.040280 4.448556
2295759350780 9.923036 1.030708 4.932505
2295779381926 9.268898 0.714258 4.668995
2295799403333 8.624630 0.556331 4.125226
2295819426249 8.119146 0.630509 3.782753
2295839447655 7.644769 0.783949 3.564708
2295859469166 7.232904 0.819841 3.289234
2295879490572 6.701100 0.776770 2.915654
2295899487083 6.186045 0.383749 2.738286
2295919508437 5.565705 -0.969691 2.455634
2295939562499 5.443372 -4.246662 4.573282
2295959583905 6.087640 -7.418348 16.974684
2295979582239 4.722236 -9.473484 37.094135
2295999603645 6.166902 -14.777175 47.385067
2296019662395 9.494123 -20.701206 35.481972
2296039683801 2.866003 -16.238293 11.060225
2296059681249 -5.652445 -7.176374 -2.397608
2296079702603 0.309871 -0.143270 -3.173780
2296099707916 8.799605 8.559425 -5.971588
2296119729322 10.064212 12.459428 -8.831908
2296139787030 6.573981 9.110672 -8.278568
2296159808437 3.785744 5.445466 -5.732306
2296179833020 3.840780 3.284747 -3.063710
2296199854426 4.578666 1.694118 -0.284746
2296219835520 4.765605 1.421038 1.962115
2296239856926 4.691129 1.507179 3.464209
2296259875051 4.729414 1.926521 2.925226
2296279896458 4.602594 1.241277 0.306879
2296299936770 4.178466 -2.653640 -1.034597
2296319958176 3.342474 -12.733705 4.958826
2296339979270 10.701600 -23.796022 28.211678
2296360000676 26.224140 -19.913071 68.752975
2296380019010 37.331921 -20.957537 73.984581
2296400040416 33.228531 -29.147572 34.667515
2296420069791 14.368900 -17.244474 4.616353
2296440091197 1.526920 -6.273383 -1.772483
2296460095051 6.166902 -0.104985 -4.028915
2296480116458 10.167402 6.853941 -11.557932
2296500151197 10.308579 9.733404 -13.376178
2296520172603 8.847462 8.806186 -11.845369
2296540190833 4.727021 6.106483 -8.898908
2296560212187 1.050150 3.490829 -3.866203
2296580228749 -1.043570 1.696511 0.637388
2296600250155 -2.121536 0.788734 3.959822
2296620265989 -2.054537 -0.411565 7.349555
2296640287395 -0.478265 -1.750649 10.490134
2296660327239 1.332802 -2.306382 11.680564
2296680348645 3.086143 -2.133800 12.107084
2296700357083 5.371588 -1.659423 14.653347
2296720378489 6.847062 -0.782752 14.823536
2296740376041 6.815955 0.058026 11.314163
2296760397395 8.250751 0.872483 8.494520
2296780471353 11.372189 2.530111 7.133902
2296800492760 13.722239 4.142275 5.037789
2296820491458 14.373686 3.864408 2.893820
2296840512864 12.847962 3.756732 2.668895
2296860547968 10.936097 3.538686 4.743173
2296880569322 9.496515 3.203391 6.300302
2296900581353 7.994720 2.944667 6.089435
2296920602760 7.697412 2.978167 4.453342
2296940624322 8.303693 3.222534 2.977868
2296960645728 9.058030 3.296711 2.129911
2296980667708 9.726525 3.191427 1.799103
2297000689114 9.934999 3.090630 2.031507
2297020714010 9.774382 2.843870 2.434099
2297040735416 9.556335 2.827120 2.620739
2297060756510 9.930214 2.618645 2.647359
2297080777968 9.678668 3.413960 2.139482
2297100792968 9.594621 3.529114 1.071087
2297120814374 9.743275 3.167200 0.972682
2297140832968 9.558728 3.215355 1.073480
2297160854426 9.474979 3.203391 1.035195
2297180893593 9.304790 3.299104 1.111765
2297200914999 8.679665 3.462115 1.106980
2297220919322 8.705986 3.301497 1.356132
2297240940728 8.979067 3.294319 1.691427
2297260951145 9.362516 3.399603 1.578964
2297280972603 8.593523 3.478865 1.578964
2297301005572 8.095218 3.378067 1.293919
2297321026978 7.637591 3.251248 1.145265
2297341046822 6.689136 3.061916 0.836291
2297361068228 5.570491 2.855834 0.172582
2297381101041 2.868396 2.084448 -1.381855
2297401122447 -1.453042 -1.700400 -3.214458
2297421109270 -7.945068 -8.877073 3.902395
2297441130676 -8.867203 -17.004892 25.689344
2297461164322 -2.586342 -21.118155 55.436317
2297481185728 16.781164 -21.127728 67.945694
2297501223333 24.798914 -14.370096 32.001312
2297521244739 -4.107280 -7.590631 -18.363419
2297541268228 -10.436296 -2.538785 -8.985348
2297561289687 8.380263 5.169992 10.434800
2297581324322 8.995817 7.924729 6.108577
2297601345728 1.610669 3.603292 -2.694618
2297621372916 0.915853 1.433002 1.250549
2297641394322 4.880461 2.199602 8.736495
2297661389426 5.215755 2.819942 8.283653
2297681410885 3.912564 2.961417 3.500101
2297701434062 3.797709 2.968596 0.479462
2297721455468 3.603591 2.436791 0.040977
2297741466041 -2.397010 1.181456 -2.277967
2297761487447 -9.676874 -7.540382 -2.622833
2297781522968 -3.209074 -20.655743 13.635201
2297801544322 14.474483 -27.396624 49.725548
2297821569895 34.986954 -16.324734 78.914391
2297841591249 43.313381 -19.525133 60.687366
2297861591666 18.225533 -22.718056 1.339383
2297881613072 -16.944773 -9.389735 -18.241385
2297901649947 -8.677871 -3.429812 3.420839
2297921671353 3.814458 1.617548 8.523234
2297941691510 3.871886 4.908875 -0.337687
2297961712916 2.916253 6.988238 -5.183452
2297981734635 2.015355 7.220642 -5.210072
2298001756041 0.736391 5.840581 -3.130709
2298021780155 -0.181256 4.693223 -0.224925
2298041801562 -0.794417 4.044169 1.173979
2298061821197 -1.558625 3.232105 1.564607
2298081842603 -2.229213 2.245066 2.570490
2298101863593 -2.667698 1.133600 4.249653
2298121884999 -3.137290 0.240180 5.322834
2298141906353 -3.264109 -0.380459 4.987540
2298161927760 -2.734697 -0.861715 3.749254
2298181959635 -0.847059 -1.242772 3.080759
2298201981041 2.494518 -1.352842 3.227021
2298221958228 6.142974 -1.295414 3.579064
2298241979583 10.124033 -1.388734 4.527819
2298262037499 13.611871 -0.363709 5.967401
2298282058905 16.874485 1.442573 6.906284
2298302075468 18.764515 2.726621 6.407979
2298322096874 18.649660 2.362613 4.855935
2298342134166 16.443478 0.407677 2.793321
2298362155572 13.307683 -0.265304 1.629213
2298382173593 11.930315 -0.152842 1.586142
2298402194999 11.947064 0.683151 2.244767
2298422191041 11.920743 1.514358 3.346662
2298442212447 11.408081 1.852344 4.144369
2298462246510 10.998610 1.562513 3.768397
2298482267916 10.878669 1.526322 2.568097
2298502292708 11.269298 1.468894 1.494916
2298522314114 11.875279 1.452144 0.867398
2298542333958 12.220145 1.634298 0.711566
2298562355364 12.074183 1.718047 0.999003
2298582374270 11.846566 1.914557 1.087837
2298602395676 11.427223 2.022234 1.130908
2298622418905 10.694422 1.967199 0.927219
2298642440312 9.800702 1.782653 0.716351
2298662470833 8.524132 1.672583 1.138086
2298682492239 7.038787 1.514358 1.382453
2298702505885 5.194220 1.421038 1.497309
2298722527291 2.379662 1.023530 1.339383
2298742547447 -1.659123 -1.939682 0.354736
2298762568853 -7.635796 -9.099904 4.520341
2298782594478 -8.551051 -19.182362 23.976681
2298802615885 1.800001 -21.877279 56.542995
2298822622135 23.364119 -23.575884 74.039612
2298842643541 34.225140 -16.480267 39.755550
2298862672083 4.125824 -8.491529 -11.967703
2298882693489 -12.611372 -5.775077 -11.045269
2298902716353 2.427519 2.740978 5.656034
2298922737760 9.683455 8.252846 9.371191
2298942747603 4.961817 5.998806 0.198903
2298962769010 1.739881 4.690830 -4.728517
2298982800833 1.634597 4.733901 -3.214458
2299002822239 2.175973 3.864408 -1.101596
2299022851458 2.049154 2.455933 0.079262
2299042872864 1.406980 0.989731 1.636392
2299062876145 0.637986 0.266501 2.673680
2299082897447 0.717249 0.096311 3.075974
2299102934947 1.418944 0.465105 2.656930
2299122956301 1.196112 -0.921835 0.357129
2299142990520 2.132902 -9.449555 0.134297
2299163011874 10.310972 -15.675381 18.124435
2299182981041 15.238392 -11.399706 50.805904
2299203002343 13.904094 -14.621343 68.235527
2299223074530 11.992528 -24.838097 43.708195
2299243095833 0.477667 -17.452950 11.608779
2299263106874 -9.530613 -7.420741 0.407378
2299283128280 -3.048456 -1.781756 2.120340
2299303138489 5.316553 4.192524 -0.948455
2299323159791 8.234002 8.820542 -6.982555
2299343175312 7.932207 9.925129 -9.042776
2299363196666 5.371588 8.461320 -8.424829
2299383185937 2.240579 5.807081 -6.529714
2299403207291 -1.275973 3.598506 -3.379862
2299423254010 -3.089433 2.796013 0.342772
2299443275364 -2.610271 2.740978 3.370590
2299463329374 -2.545664 2.285744 4.875077
2299483350780 -3.000600 0.714258 6.223732
2299503360208 -2.967100 -1.041476 7.196115
2299523381562 -1.848456 -1.625923 7.011868
2299543401510 0.683450 -1.312164 6.480063
2299563422812 3.694817 -1.585245 7.157830
2299583403645 6.152545 -1.822434 7.517352
2299603424999 8.931211 -1.561317 8.624032
2299623488801 13.017853 -0.466600 10.298409
2299643510103 16.101004 1.500001 9.500702
2299663531562 17.526230 3.648755 6.995118
2299683552864 17.363218 3.337389 3.754040
2299703570260 15.741483 1.327717 1.962115
2299723591614 12.675380 1.205384 1.173979
2299743612655 10.998610 2.022234 1.095015
2299763634010 10.840384 2.582753 1.696212
2299783624010 10.727921 2.874976 2.448456
2299803645364 10.888241 2.836691 2.446063
2299823709322 10.672587 2.810370 1.895115
2299843730676 10.035499 2.405684 1.267299
2299863760364 9.712168 2.132603 0.737887
2299883781718 9.724133 2.022234 0.404985
2299903803541 9.838987 2.015056 0.565603
2299923824895 9.743275 2.003092 1.145265
2299943813228 9.702597 2.149353 1.356132
2299963834583 9.510872 2.201995 1.164407
2299983862916 9.180363 2.154139 0.982254
2300003884218 8.672486 2.099104 0.802792
2300023904426 7.706983 2.038984 0.589532
2300043925780 6.444769 1.962414 0.369093
2300063970885 4.801498 2.072484 -0.234497
2300083992343 2.111367 0.929911 -2.107778
2300104008437 -0.904487 -5.075476 -1.688735
2300124029895 -2.339582 -13.287344 16.845173
2300144017343 -0.281755 -17.922541 53.936913
2300164038801 14.285151 -24.996323 78.914391
2300184066405 29.656942 -26.107788 47.145485
2300204087864 -0.720240 -12.769897 -12.065808
2300224119635 -10.675878 -3.916153 -9.399606
2300244141145 6.940681 5.268098 7.402197
2300264180051 9.906285 8.724830 5.203193
2300284201510 5.488836 7.431210 -4.587041
2300304247551 3.000001 6.118447 -6.304789
2300324268958 2.635993 5.047659 -2.720938
2300344265833 2.111367 3.368496 -0.716052
2300364287239 2.228615 2.959024 -1.046561
2300384324322 2.635993 2.683551 -1.753341
2300404345728 3.790530 1.924129 -1.489831
2300424364999 6.063712 1.869094 1.128515
2300444386405 8.318049 2.079662 2.491527
2300464392708 8.066504 2.697907 0.596710
2300484414166 4.731807 2.640480 -2.994019
2300504436301 -0.756132 -5.741578 -2.160420
2300524457708 2.171187 -15.804893 16.581663
2300544482239 14.594125 -20.519053 47.135914
2300564503645 36.570107 -16.849360 78.164543
2300584510624 47.409893 -11.236695 55.886765
2300604532083 23.771198 -11.861820 3.648456
2300624599478 -14.105989 -5.552246 -15.637395
2300644620885 -5.087141 -0.061615 2.807678
2300664620103 9.362516 5.608477 7.811968
2300684641562 6.408876 6.013163 -2.232503
2300704641978 2.600101 5.653941 -7.363613
2300724663437 1.526920 4.887340 -5.650651
2300744700728 1.462015 3.397210 -0.658624
2300764722187 0.503988 1.948057 2.855535
2300784731249 -0.597907 0.846162 3.416054
2300804752708 -0.643370 -0.210269 4.685745
2300824762655 -0.535693 -1.575674 8.511271
2300844784114 -0.492622 -2.715854 12.368201
2300864825624 -0.468694 -2.866901 13.903496
2300884847083 -0.229113 -2.018944 12.832707
2300904852343 0.611665 -1.190130 10.240982
2300924873801 1.608276 -0.567099 8.092227
2300944905989 2.331806 -0.174377 7.234699
2300964927447 2.382055 -0.435494 6.604490
2300984941926 3.119642 -0.713360 6.022436
2301004963385 5.778666 -0.289232 4.939683
2301024976822 9.187542 0.424427 4.043870
2301044998280 13.082458 0.141775 3.715755
2301065032812 17.595621 0.544367 4.851149
2301085054270 19.847267 2.391327 6.535098
2301105076822 18.252151 2.616252 5.902794
2301125098228 14.598910 0.848555 4.108477
2301145114687 11.846566 0.160917 2.568097
2301165136093 10.799706 0.841376 2.807678
2301185163905 10.462019 1.452144 3.758825
2301205185312 10.277472 1.555335 3.871288
2301225202916 10.006784 1.495215 3.030510
2301245224322 9.838987 1.277169 2.196910
2301265244999 9.963714 1.274776 1.763211
2301285266405 9.961321 1.325325 1.849652
2301305293593 10.013963 1.306182 2.074577
2301325314999 10.200902 1.521536 2.031507
2301345346301 10.358829 1.694118 1.842473
2301365367708 10.495519 1.967199 1.803889
2301385391093 10.438090 2.199602 1.542772
2301405412499 10.181760 2.247459 1.035195
2301425403645 10.212866 2.367399 0.534497
2301445425051 9.836595 2.554039 0.546461
2301465439530 8.900104 2.542075 0.697209
2301485460937 7.632805 2.347957 0.424128
2301505488072 6.255436 2.539682 -0.011665
2301525509478 5.065007 2.721836 -0.596112
2301545523489 2.856133 1.471287 -1.712663
2301565544895 -1.453042 -2.495714 -2.594119
2301585576041 -7.235896 -9.114262 6.242874
2301605597447 -9.569197 -17.244474 27.624838
2301625614999 -3.932604 -24.986752 55.814980
2301645636405 17.598015 -29.933313 70.558952
2301665684322 33.582966 -17.630318 36.485760
2301685705728 0.444168 -1.161416 -19.549360
2301705702083 -9.825528 -3.010470 -11.414362
2301725723489 9.326325 3.902694 7.121937
2301745749583 12.141182 9.793225 7.720741
2301765770989 4.712664 5.352146 0.148654
2301785816822 0.812962 1.325325 -0.984347
2301805838228 3.131906 1.430609 3.799503
2301825820103 4.813462 2.384149 5.677570
2301845841562 4.731807 3.325425 2.031507
2301865867708 4.094718 3.433102 -2.114956
2301885889114 1.991427 1.830808 -3.818048
2301905938697 -1.613660 -0.699003 -4.088736
2301925960103 -4.651049 -9.981360 0.112762
2301946015103 -1.805385 -22.452154 16.265511
2301966036510 13.276576 -25.336403 57.086765
2301986053489 36.007195 -19.036400 78.914391
2302006074895 41.627037 -27.413372 53.016872
2302026091458 18.819849 -23.228325 0.527318
2302046112812 -12.661621 -9.492626 -15.853048
2302066139843 -8.512766 -2.917150 -2.146063
2302086161405 3.414558 2.645265 3.260520
2302106174843 6.006284 6.161818 -2.534298
2302126196405 6.559624 7.378568 -6.517750
2302146214583 4.988138 7.539186 -6.189634
2302166236197 2.341377 5.620441 -3.585944
2302186259687 0.621237 3.574578 -1.142573
2302206281197 -0.135793 3.282354 0.321236
2302226299791 -0.150150 3.054737 1.114158
2302246321301 -0.360718 2.678765 1.540380
2302266343385 -0.583550 1.287040 2.714358
2302286364947 -0.691526 -1.024726 3.799503
2302306386197 -0.281755 -2.802294 5.059324
2302326407708 1.205683 -3.743571 6.441778
2302346440155 3.407379 -4.237091 7.433303
2302366461770 6.123831 -3.861119 8.417950
2302386457135 8.411369 -2.991328 9.914960
2302406478645 10.797313 -2.459522 10.386944
2302426478905 13.985749 -0.370888 8.856435
2302446500520 16.934605 2.577967 6.278767
2302466525051 17.490337 2.623431 3.885645
2302486546614 16.026527 0.412463 1.842473
2302506583072 13.688740 0.254537 1.406381
2302526604635 12.407084 1.109671 2.668895
2302546556666 12.857533 1.813760 3.353840
2302566578176 13.882559 2.812763 3.382554
2302586653124 13.817952 3.267998 2.664109
2302606674687 12.519547 2.441576 2.000400
2302626701510 11.443974 1.818545 1.557129
2302646723072 10.912169 2.046162 1.238585
2302666730364 10.931312 2.173281 0.999003
2302686751926 10.708778 2.170888 1.001396
2302706787187 10.481161 2.321636 1.099801
2302726808749 10.253544 2.388934 1.042373
2302746774478 9.348160 2.204388 1.006182
2302766796041 8.009076 1.881058 0.711566
2302786855416 6.617052 1.722832 0.498604
2302806876978 4.463511 1.346860 0.527318
2302826892395 0.055932 -1.233201 -0.325424
2302846913958 -6.062216 -7.732107 3.789932
2302866949687 -8.790632 -15.644275 19.568802
2302886971249 -5.611767 -23.628525 46.072605
2302907002708 7.048358 -30.326336 68.733833
2302927024270 27.079275 -25.712673 55.441101
2302947040572 19.627129 -6.194120 -5.241179
2302967062135 -6.352047 -0.071486 -22.823938
2302987057864 1.548455 1.452144 5.136194
2303007079426 9.474979 6.132804 15.623636
2303027108697 3.910171 3.763910 4.465306
2303047130260 -0.054138 2.582753 -3.518646
2303067190624 1.522134 3.100201 -0.426222
2303087212083 4.437191 2.810370 5.711070
2303107221874 4.655236 2.729014 6.238089
2303127243333 3.821637 2.755335 2.517848
2303147243801 3.847958 2.367399 -1.159323
2303167265260 1.265803 0.925125 -3.786941
2303187283749 -4.955236 -5.504389 -5.339284
2303207305208 -12.079567 -20.837597 0.994218
2303227357343 -14.398212 -42.789951 23.291437
2303247378801 -11.940484 -46.423752 71.859756
2303267367083 8.907282 -39.031425 78.914391
2303287388541 26.911777 -39.922451 29.498119
2303307412343 4.288836 -20.370697 -16.219450
2303327433801 -11.039886 -6.778567 -10.024731
2303347484947 0.882353 -0.749253 5.720641
2303367506405 6.276972 3.498008 6.836893
2303387494895 5.170291 4.947161 -0.330210
2303407516353 4.506881 5.874380 -5.185845
2303427564478 3.792923 6.369993 -5.308178
2303447585937 2.350948 6.353243 -3.233601
2303467590051 1.095614 5.644370 -1.695913
2303487611510 -0.018245 4.729115 -0.883849
2303507637499 -0.861416 3.893122 -0.186640
2303527658958 -1.354936 3.311068 0.474377
2303547685937 -1.314258 3.172285 1.063909
2303567707395 -0.993321 2.374577 1.734497
2303587739895 -0.416052 0.376570 3.296412
2303607761353 -0.312862 -1.374377 5.821139
2303627785728 0.108574 -1.846362 7.181758
2303647807187 1.316052 -1.070190 7.133902
2303667807968 4.176074 -0.651147 6.017650
2303687829426 7.036394 -0.780359 4.846363
2303707851718 11.115857 -0.562313 4.997111
2303727873176 17.509480 1.619941 6.398408
2303747908020 21.179173 5.167600 4.592425
2303767929478 20.906092 4.115954 1.667498
2303787934947 18.398115 1.560120 -0.486042
2303807956405 15.329618 1.931307 -1.120738
2303827974010 15.372689 2.738585 0.119940
2303847995468 15.518651 4.398606 2.975475
2303868033437 14.596518 4.429713 3.416054
2303888054895 12.114861 3.701397 1.420738
2303908045208 8.933603 2.990131 -0.212961
2303928066666 6.713064 2.693122 -0.833300
2303948096458 6.509375 2.978167 -0.576969
2303968117916 7.429116 3.241677 0.383450
2303988170103 7.848458 3.315854 1.770390
2304008191562 7.072287 2.913561 2.747858
2304028213905 3.800102 1.088136 2.134697
2304048235364 -2.231606 -5.216951 0.577568
2304068245989 -9.408579 -17.551056 8.257332
2304088267395 -15.562619 -32.414970 31.558340
2304108243697 -20.377577 -41.345581 67.507210
2304128265051 2.537588 -42.207897 78.212700
2304148307760 22.549362 -27.013172 16.100107
2304168329166 -5.822635 -5.516354 -29.509785
2304188349218 -5.887241 -2.569891 -10.293026
2304208370572 9.795917 3.294319 7.064510
2304228388124 10.148260 9.019445 9.965508
2304248409530 3.682853 5.229813 2.652145
2304268439739 -0.811167 1.344467 -2.074278
2304288461145 -0.202792 1.751546 -0.409472
2304308479166 3.119642 4.106383 0.567996
2304328500520 4.032505 5.102993 -0.775873
2304348527395 4.008576 4.154239 -1.463510
2304368548801 4.909175 2.944667 -0.979562
2304388563072 5.735596 1.102493 0.508176
2304408584478 4.832604 1.107279 1.463809
2304428604374 2.044069 1.694118 1.272084
2304448625728 -4.445266 -5.310272 3.150151
2304468672291 -7.240681 -18.080467 13.630415
2304488693645 4.061218 -32.228329 42.987061
2304508698228 33.202209 -25.053751 78.914391
2304528719583 46.121059 -17.445770 64.582283
2304548734791 20.566011 -18.904495 5.009075
2304568756197 -11.260324 -7.162017 -16.025631
2304588779635 -6.086144 1.191028 1.782354
2304608801041 5.292624 4.595117 9.277871
2304628827239 6.820741 5.296812 -0.404686
2304648848645 6.399305 6.688837 -5.763412
2304668885676 4.439583 7.162915 -6.225526
2304688907030 1.031007 5.079065 -5.545366
2304708891926 -1.417149 3.294319 -4.282854
2304728913333 -1.850848 2.577967 -1.774876
2304748940155 -1.791028 1.900200 0.290130
2304768961562 -1.843670 0.742971 1.957329
2304788997030 -1.613660 -1.027119 3.418446
2304809018385 -0.363111 -2.624926 4.379165
2304829040676 1.454836 -3.494418 4.937290
2304849062083 4.576273 -3.995116 4.714459
2304869100103 8.521440 -4.785645 5.888437
2304889121510 13.214363 -4.107579 8.489735
2304909145103 19.152750 -0.746860 9.555737
2304929166510 24.556940 4.642973 9.548559
2304949175624 26.947670 5.067101 6.570990
2304969196978 22.075285 1.845165 1.875973
2304989214791 14.378471 -1.110868 -0.637089
2305009236197 10.102497 -0.425922 -1.276571
2305029277239 9.911072 2.249851 -0.155533
2305049298645 11.535200 4.056133 1.423131
2305069320208 12.464512 4.698008 2.168196
2305089341614 11.415259 3.940979 1.959722
2305109336874 10.100104 3.069094 1.080659
2305129358280 9.038888 2.815156 0.486640
2305149411301 8.052147 2.760121 0.682852
2305169432708 8.085647 3.263212 0.654138
2305189444218 7.625627 3.600899 0.661316
2305209465624 5.692525 3.258426 0.419342
2305229487291 2.365305 2.247459 -0.768694
2305249508697 -2.267498 -1.731506 -1.805983
2305269528749 -8.366505 -8.678169 7.838289
2305289550155 -8.838489 -15.979568 32.446976
2305309559947 -0.310469 -21.908384 63.537815
2305329581301 23.011776 -24.981966 69.409203
2305349619270 27.845875 -8.548957 12.135798
2305369640676 -10.915459 2.405684 -32.633316
2305389664374 -6.962815 -2.392524 -3.473182
2305409685780 11.477473 6.789335 15.290436
2305429699374 7.417152 7.994122 6.333802
2305449720780 0.695414 3.622434 -2.524727
2305469744739 1.380659 3.083451 0.369093
2305489766145 3.340081 3.366103 3.600600
2305509800989 2.741277 3.390032 1.581357
2305529822343 2.786741 3.567400 -1.063311
2305549826666 3.105286 3.191427 -2.443072
2305569848072 2.195116 2.283351 -3.564109
2305589872551 0.089432 -0.598206 -3.207280
2305609893958 -4.768597 -6.505486 -0.840479
2305629912187 -10.148858 -21.249760 7.054938
2305649933593 -8.273184 -42.186359 35.999420
2305669954270 -1.278365 -40.612480 78.914391
2305689975624 17.938093 -41.204105 76.075905
2305709978385 23.612972 -39.002708 14.207684
2305729999739 -9.403793 -9.487841 -25.681568
2305750040260 -10.522438 -2.284847 -4.750052
2305770061666 6.667600 3.636791 9.984651
2305790045520 8.416156 6.027520 2.235195
2305810066926 7.081858 6.159425 -6.278468
2305830120885 6.420840 7.172486 -7.119246
2305850142291 4.779963 6.964310 -4.826622
2305870155520 2.612065 5.831010 -2.222932
2305890176926 0.492024 4.467998 0.412164
2305910196197 -1.649552 3.378067 2.690430
2305930217603 -2.548057 2.666801 4.628317
2305950248958 -2.729912 2.201995 7.196115
2305970270312 -2.986243 1.663012 9.867104
2305990304010 -3.242574 0.949053 11.793026
2306010325364 -2.945565 0.824627 11.778669
2306030340208 -2.375475 1.418645 9.637094
2306050361614 -1.862812 2.261816 7.019046
2306070253176 -1.347757 2.585146 4.958826
2306090274010 -0.430409 2.709872 3.605386
2306110394999 1.019043 2.561218 3.291627
2306130415833 2.664707 1.957628 3.696313
2306150451822 4.616951 1.334896 4.048656
2306170472708 6.681957 0.738186 4.546961
2306190502708 9.309576 0.874876 4.690531
2306210523593 12.627523 1.545464 4.158726
2306230520989 14.460126 2.137389 4.127619
2306250541822 15.523437 2.772085 3.900002
2306270548801 16.156040 2.851048 2.877070
2306290569635 14.646767 2.393720 1.602892
2306310612239 12.246467 1.090529 0.211167
2306330633072 10.904990 -0.011366 -0.289532
2306350653541 11.001002 0.180060 0.721137
2306370674374 11.923136 0.994517 1.734497
2306390743124 12.435799 1.502393 1.964507
2306410764010 12.258430 1.713261 1.598106
2306430742343 11.657233 1.471287 1.157229
2306450763124 10.921740 1.366003 1.166800
2306470786197 10.330114 1.490429 1.250549
2306490807083 9.812667 1.710868 1.317847
2306510760885 9.635597 2.151746 1.109372
2306530781718 8.919247 2.038984 0.352343
2306550847447 6.923932 0.750449 0.084048
2306570868280 4.820640 -1.875076 0.618246
2306590930416 3.277868 -7.648358 4.982754
2306610951249 0.312263 -14.012968 27.150461
2306630978541 0.523131 -19.728523 63.010796
2306650999426 13.868202 -31.447372 72.465736
2306671006301 24.521048 -27.633812 27.893133
2306691027187 1.699203 -2.610569 -22.306490
2306711050885 -5.470292 2.587538 -14.152349
2306731071770 8.416156 6.506683 1.169193
2306751083489 11.391332 10.849656 2.194517
2306771104374 6.109474 8.332108 -1.892125
2306791114322 4.245765 5.287241 -3.317649
2306811135155 5.915357 3.548257 -0.018843
2306831167968 6.135796 2.343172 3.152544
2306851188853 7.786245 4.154239 3.545565
2306871218385 9.225827 5.385645 2.323730
2306891239218 7.513164 3.572185 0.639781
2306911246249 4.700700 1.236491 -0.593719
2306931267135 2.880360 1.627119 -0.172283
2306951286041 -2.435295 2.273780 -0.543470
2306971306874 -12.014960 -3.003292 -3.947559
2306991360103 -20.346470 -17.426628 0.072084
2307011380989 -17.907585 -39.529728 25.976782
2307031372291 -0.406481 -47.954559 71.691956
2307051393176 33.147175 -35.215469 78.914391
2307071432343 51.760044 -22.543381 43.763229
2307091453749 20.295324 -1.374377 -21.856043
2307111482135 -18.410677 0.884447 -20.694326
2307131503541 -7.456335 -1.942075 12.835101
2307151517655 4.367799 3.538686 20.912672
2307171539062 2.829812 4.214060 5.615356
2307191563489 1.316052 5.282455 -1.583151
2307211584895 0.077468 5.447859 0.941576
2307231608593 -1.920240 3.687041 2.774179
2307251629999 -3.594618 2.420041 2.364408
2307271680520 -4.507480 2.264208 2.007578
2307291701926 -4.857131 2.235495 2.697608
2307311702708 -4.881059 2.036591 3.799503
2307331724010 -4.699204 1.394717 5.945865
2307351730624 -4.301398 0.530010 8.456235
2307371752030 -3.724129 0.069990 9.359226
2307391772551 -2.933601 0.115454 7.795218
2307411793958 -1.932204 0.431605 5.967401
2307431813020 -0.243470 -0.023330 6.573383
2307451834426 2.257329 -0.071486 7.658528
2307471866822 5.103292 0.599402 7.423732
2307491888228 8.627023 1.001695 6.309873
2307511911770 13.326826 2.290529 5.421239
2307531933176 17.137995 5.112565 4.946862
2307551946197 18.093927 5.960521 4.096512
2307571967603 15.707983 4.180560 2.704787
2307591989635 12.277573 2.163710 0.790828
2307612010989 10.193724 2.216352 -0.780658
2307632051197 9.707382 2.891726 -0.680160
2307652072603 9.807881 3.232105 0.754936
2307672096301 9.599406 3.576971 1.916651
2307692117708 9.350553 3.320640 2.230410
2307712133541 9.055637 2.951846 1.887937
2307732154947 8.703593 2.594717 1.396810
2307752194999 8.548059 2.357528 0.939183
2307772216353 8.473583 2.199602 0.735494
2307792242551 8.222037 2.300101 0.742672
2307812263905 7.747960 2.328815 0.668495
2307832281926 6.926324 2.218745 0.251845
2307852303333 5.338088 1.308575 -0.248854
2307872304270 3.596412 -4.632205 -1.257428
2307892325676 0.566202 -14.616557 10.022936
2307912342916 -7.604690 -19.165611 37.086956
2307932364322 -11.614761 -25.820351 63.128345
2307952421405 6.221937 -27.097221 53.275597
2307972442760 14.484055 -13.766208 9.395418
2307992427135 -2.794518 -1.420140 -14.583357
2308012448541 -5.491827 -0.900300 -4.977669
2308032471822 3.601198 2.726621 7.601100
2308052493228 6.882954 7.613363 8.990433
2308072523124 4.499703 5.874380 1.868794
2308092544635 0.664307 2.898905 -2.936592
2308112559635 1.411765 2.103889 0.177368
2308132581145 4.027719 2.503790 4.450949
2308152643176 5.994320 4.252644 4.800900
2308172664635 7.822137 5.390431 1.413560
