time,seconds_elapsed,z,y,x
1687149271955482000,0.125482177734375,-0.3320959508419037,-2.280329942703247,1.3389031887054443
1687149271965553400,0.135553466796875,-0.4961465299129486,-2.410292148590088,1.2078758478164673
1687149271975633000,0.1456328125,-0.6580666303634644,-1.6837823390960693,0.7977492809295654
1687149271985718800,0.15571875,-0.6783066391944885,-1.1191926002502441,0.7476819157600403
1687149271995809800,0.165809814453125,-0.5163865685462952,-0.5844302773475647,0.6251766085624695
1687149272005904600,0.175904541015625,-0.2692453861236572,-0.447011262178421,0.39188385009765625
1687149272016001000,0.1860009765625,0.04607265070080757,-0.4523375630378723,0.13622058928012848
1687149272026097700,0.19609765625,0.2569948434829712,-0.5396891832351685,-0.09920267760753632
1687149272036156000,0.206156005859375,0.33902016282081604,-0.4374238848686218,-0.21851220726966858
1687149272046211000,0.216211181640625,0.4263717830181122,-0.3543333113193512,-0.15566164255142212
1687149272056266500,0.2262666015625,0.5456812977790833,-0.35539859533309937,0.004127896390855312
1687149272066321700,0.23632177734375,0.6213150024414062,-0.3063964545726776,0.1735048145055771
1687149272076377000,0.246377197265625,0.5648560523986816,-0.4565986394882202,0.4089280664920807
1687149272086432300,0.256432373046875,0.47430863976478577,-0.5290365815162659,0.6933534741401672
1687149272096487400,0.2664873046875,0.40932756662368774,-0.2659164369106293,0.88297039270401
1687149272106542800,0.27654296875,0.36671701073646545,0.05898897349834442,0.9117324948310852
1687149272116598000,0.286597900390625,0.29534435272216797,0.30613014101982117,0.7775092720985413
1687149272126653200,0.296653076171875,0.19840535521507263,0.3977428078651428,0.5282375812530518
1687149272136708600,0.30670849609375,0.105727419257164,0.3519364893436432,0.23529011011123657
1687149272146763800,0.316763671875,0.026897907257080078,0.22090904414653778,-0.031025802716612816
1687149272156819000,0.32681884765625,-0.030626330524683,0.05472791939973831,-0.19720692932605743
1687149272166874400,0.336874267578125,-0.08921582996845245,-0.059255290776491165,-0.2270343154668808
1687149272176929500,0.346929443359375,-0.1435442715883255,-0.11677952855825424,-0.14927007257938385
1687149272186984700,0.356984619140625,-0.1339569091796875,-0.28189539909362793,-0.01504684891551733
1687149272197040000,0.3670400390625,-0.027430538088083267,-0.42144492268562317,0.12876373529434204
1687149272207095300,0.37709521484375,0.11424952745437622,-0.587626039981842,0.24700801074504852
1687149272217150700,0.387150634765625,0.20266640186309814,-0.7186535000801086,0.33862069249153137
1687149272227206000,0.397205810546875,0.18881797790527344,-0.5812344551086426,0.3886880576610565
1687149272237261000,0.407260986328125,0.07590003311634064,-0.30959224700927734,0.37697017192840576
1687149272247316500,0.41731640625,-0.10412952303886414,-0.002796316985040903,0.29174908995628357
1687149272257371600,0.42737158203125,-0.21065588295459747,0.20812588930130005,0.11598058044910431
1687149272267426800,0.4374267578125,-0.22983063757419586,0.18469008803367615,-0.16311849653720856
1687149272277482200,0.447482177734375,-0.23196116089820862,0.07177213579416275,-0.45500072836875916
1687149272287537400,0.457537353515625,-0.20319904386997223,0.06964161247015,-0.6563355326652527
1687149272297592600,0.467592529296875,-0.11691268533468246,0.10905636847019196,-0.7287734746932983
1687149272307648000,0.47764794921875,-0.011451584286987782,0.08988162130117416,-0.7064029574394226
1687149272317703200,0.487703125,0.05566002428531647,0.06857634335756302,-0.5945502519607544
1687149272327758600,0.497758544921875,0.10253162682056427,-0.0006657897611148655,-0.3921501636505127
1687149272337813800,0.507813720703125,0.19627483189105988,-0.1753690242767334,-0.1322258561849594
1687149272347869000,0.517868896484375,0.15686006844043732,-0.18602167069911957,-0.019307903945446014
1687149272357924400,0.52792431640625,-0.014647374860942364,-0.30107012391090393,0.0882837250828743
1687149272367979500,0.5379794921875,-0.1478053331375122,-0.503470242023468,0.17457008361816406
1687149272378034700,0.54803466796875,-0.22663484513759613,-0.5812344551086426,0.19054903090000153
1687149272388090000,0.558090087890625,-0.26818013191223145,-0.5727123618125916,0.23102904856204987
1687149272398145300,0.568145263671875,-0.2372874766588211,-0.6121271252632141,0.3375554084777832
1687149272408200400,0.578200439453125,-0.13715268671512604,-0.6888260841369629,0.4930838942527771
1687149272418256000,0.588255859375,0.010918952524662018,-0.7335671782493591,0.6475471258163452
1687149272428311000,0.59831103515625,0.1664474457502365,-0.7665903568267822,0.7050713896751404
1687149272438366200,0.6083662109375,0.24847275018692017,-0.6696513295173645,0.6177197694778442
1687149272448421400,0.61842138671875,0.27297380566596985,-0.3063964545726776,0.3705785870552063
1687149272458476800,0.628476806640625,0.26871275901794434,0.04194475710391998,0.13622058928012848
1687149272468532000,0.638531982421875,0.24634221196174622,0.1910816729068756,0.06591318547725677
1687149272478587100,0.648587158203125,0.23036326467990875,0.2624543309211731,-0.006524739786982536
1687149272488642300,0.658642333984375,0.16964323818683624,0.23262694478034973,-0.0033289489801973104
1687149272498697500,0.668697509765625,0.1153147891163826,0.10905636847019196,0.05632581561803818
1687149272508752600,0.678752685546875,0.10253162682056427,-0.13701952993869781,0.18522271513938904
1687149272518808000,0.68880810546875,0.10466215014457703,-0.4725775718688965,0.37803542613983154
1687149272528863200,0.69886328125,0.0918789878487587,-0.7868303656578064,0.5527386665344238
1687149272538918400,0.70891845703125,0.07376950979232788,-1.0254493951797485,0.6550039649009705
1687149272548973600,0.7189736328125,0.06950845569372177,-1.137302041053772,0.685896635055542
1687149272559028700,0.72902880859375,0.08016108721494675,-1.1724557876586914,0.669917643070221
1687149272569084000,0.739083984375,0.07803056389093399,-1.1458241939544678,0.6305029392242432
1687149272579139000,0.74913916015625,0.040746334940195084,-1.102148413658142,0.5932186841964722
1687149272589194500,0.759194580078125,-0.035952646285295486,-1.1159968376159668,0.594283938407898
1687149272599249700,0.769249755859375,-0.11584742367267609,-1.2033483982086182,0.6528734564781189
1687149272609304800,0.779304931640625,-0.18189376592636108,-1.3897695541381836,0.7817703485488892
1687149272619360000,0.789360107421875,-0.27670222520828247,-1.7658076286315918,0.995888352394104
1687149272629415200,0.799415283203125,-0.39920756220817566,-2.3240058422088623,1.3165327310562134
1687149272639470300,0.80947021484375,-0.5398223400115967,-3.0622334480285645,1.737311840057373
1687149272649525800,0.81952587890625,-0.6953508257865906,-3.9165749549865723,2.2454426288604736
1687149272659581000,0.829580810546875,-0.8349003791809082,-4.862529277801514,2.8079018592834473
1687149272669636000,0.839635986328125,-0.8828372359275818,-5.817005157470703,3.3437294960021973
1687149272679691300,0.849691162109375,-0.8082687854766846,-6.608496189117432,3.7485296726226807
1687149272689746400,0.859746337890625,-0.6293044686317444,-7.166694164276123,3.9530601501464844
1687149272699801900,0.8698017578125,-0.34381383657455444,-7.376551151275635,3.801792860031128
1687149272709857000,0.87985693359375,0.12277163565158844,-7.018622875213623,3.0742177963256836
1687149272719912200,0.889912109375,0.7864308953285217,-5.749893665313721,1.5082801580429077
1687149272729967600,0.899967529296875,1.7377113103866577,-3.0760819911956787,-0.9460873007774353
1687149272740022800,0.910022705078125,2.9073708057403564,1.2041473388671875,-4.1312255859375
1687149272750078000,0.920077880859375,3.9129796028137207,6.5570969581604,-7.623159885406494
1687149272760133400,0.93013330078125,4.671447277069092,11.812043190002441,-10.940390586853027
1687149272770188500,0.9401884765625,5.322323322296143,15.699190139770508,-13.483175277709961
1687149272780243700,0.95024365234375,5.828323841094971,18.357023239135742,-14.56761360168457
1687149272790299100,0.960299072265625,6.485591411590576,20.170101165771484,-13.54389476776123
1687149272800354300,0.970354248046875,7.296257019042969,20.52376937866211,-10.512154579162598
1687149272810409700,0.98040966796875,7.831019401550293,19.152774810791016,-6.416215896606445
1687149272820465000,0.99046484375,7.499722480773926,16.549270629882812,-2.2382521629333496
1687149272830520000,1.00052001953125,5.771864891052246,12.995550155639648,1.2323769330978394
1687149272840575500,1.010575439453125,3.4442636966705322,8.183754920959473,3.795401096343994
1687149272850630700,1.020630615234375,1.5246585607528687,2.634796380996704,5.537107467651367
1687149272860685800,1.030685791015625,0.6415550112724304,-2.4763383865356445,6.276400089263916
1687149272870741200,1.0407412109375,0.5808349847793579,-5.432445049285889,6.248703479766846
1687149272880796400,1.05079638671875,0.6479465961456299,-6.194108486175537,5.874795913696289
1687149272890851600,1.0608515625,0.48922231793403625,-5.403683185577393,5.3709259033203125
1687149272900907000,1.070906982421875,-0.07856319099664688,-3.808983325958252,4.9149932861328125
1687149272910962200,1.080962158203125,-1.0458226203918457,-2.5210795402526855,4.56026029586792
1687149272921017600,1.091017578125,-2.154762029647827,-2.3367888927459717,4.346142292022705
1687149272931072800,1.10107275390625,-3.178480386734009,-3.397791624069214,4.4036664962768555
1687149272941128000,1.1111279296875,-3.9326870441436768,-5.66254186630249,4.831902503967285
1687149272951183400,1.121183349609375,-4.228830337524414,-8.691086769104004,5.672395706176758
1687149272961238500,1.131238525390625,-4.140413284301758,-12.072233200073242,6.898514270782471
1687149272971293700,1.141293701171875,-3.7963333129882812,-15.146584510803223,8.387752532958984
1687149272981349000,1.15134912109375,-3.3925983905792236,-17.155672073364258,9.80135726928711
1687149272991404300,1.161404296875,-3.098585605621338,-18.1229305267334,10.677003860473633
1687149273001459500,1.17145947265625,-3.0272128582000732,-18.36687660217285,10.838924407958984
1687149273011515000,1.181514892578125,-3.0655624866485596,-18.142105102539062,10.361686706542969
1687149273021570000,1.191570068359375,-2.8429224491119385,-17.57325553894043,9.334772109985352
1687149273031625500,1.20162548828125,-1.9470356702804565,-16.179889678955078,7.692135810852051
1687149273041680600,1.2116806640625,-0.07217161357402802,-12.867985725402832,4.7807698249816895
1687149273051735800,1.22173583984375,2.597378969192505,-6.687325477600098,0.2438122183084488
1687149273061791200,1.231791259765625,5.530049800872803,1.7772592306137085,-4.631899356842041
1687149273071846400,1.241846435546875,8.28269100189209,8.893219947814941,-8.705467224121094
1687149273081901600,1.251901611328125,10.576203346252441,13.709277153015137,-12.112180709838867
1687149273091957000,1.26195703125,12.125097274780273,16.669645309448242,-14.876540184020996
1687149273102012200,1.27201220703125,12.933631896972656,18.75862693786621,-16.768447875976562
1687149273112067300,1.2820673828125,13.019918441772461,20.424699783325195,-16.864322662353516
1687149273122122800,1.292122802734375,12.177294731140137,22.099292755126953,-14.682662010192871
1687149273132178000,1.302177978515625,10.662489891052246,23.31369400024414,-11.042655944824219
1687149273142233000,1.312233154296875,9.056072235107422,23.337129592895508,-6.915824890136719
1687149273152288500,1.32228857421875,7.477351665496826,21.0489444732666,-3.222555637359619
1687149273162343700,1.33234375,5.699426651000977,16.50452995300293,-0.3974764943122864
1687149273172399000,1.342399169921875,3.3686299324035645,10.808564186096191,1.8939056396484375
1687149273182454300,1.352454345703125,0.8311719298362732,4.069706439971924,3.84653377532959
1687149273192509400,1.362509521484375,-0.6996119022369385,-3.2507851123809814,5.148285865783691
1687149273202564900,1.37256494140625,-0.7496792674064636,-8.55899429321289,5.718202114105225
1687149273212620000,1.3826201171875,-0.06258423626422882,-11.14332389831543,6.1006317138671875
1687149273222675200,1.39267529296875,0.5627255439758301,-11.55451488494873,6.655633926391602
1687149273232730600,1.402730712890625,0.7715172171592712,-10.663954734802246,7.2117018699646
1687149273242785800,1.412785888671875,0.5872265696525574,-9.330245018005371,7.478017807006836
1687149273252841000,1.422841064453125,0.23036326467990875,-8.415183067321777,7.3906660079956055
1687149273262896400,1.432896484375,-0.048735812306404114,-8.403465270996094,7.029541492462158
1687149273272951600,1.44295166015625,-0.13182637095451355,-8.943553924560547,6.419145584106445
1687149273283007000,1.453007080078125,0.011984216049313545,-9.202413558959961,5.442298889160156
1687149273293062100,1.463062255859375,0.2665822207927704,-8.263916015625,4.110719203948975
1687149273303117300,1.473117431640625,0.3933486044406891,-6.287851810455322,2.5639564990997314
1687149273313172700,1.4831728515625,0.33795487880706787,-3.818570613861084,1.0182589292526245
1687149273323228000,1.493227783203125,0.15899059176445007,-1.4217275381088257,-0.3175817131996155
1687149273333283000,1.503282958984375,-0.05299686640501022,0.5213133692741394,-1.2827105522155762
1687149273343338500,1.51333837890625,-0.23515695333480835,1.853958249092102,-1.8526266813278198
1687149273353393700,1.5233935546875,-0.3747064769268036,2.5282700061798096,-2.1104204654693604
1687149273363448800,1.53344873046875,-0.4673844277858734,2.531465768814087,-2.131725788116455
1687149273373504300,1.543504150390625,-0.48975494503974915,1.9732677936553955,-1.9516961574554443
1687149273383559400,1.553559326171875,-0.4215780794620514,1.0358357429504395,-1.6086812019348145
1687149273393614800,1.56361474609375,-0.24474431574344635,0.014247900806367397,-1.1836410760879517
1687149273403670000,1.573669921875,0.00985368900001049,-0.8113313913345337,-0.7809714078903198
1687149273413725200,1.58372509765625,0.27723485231399536,-1.3290495872497559,-0.44967442750930786
1687149273423780600,1.593780517578125,0.4870918095111847,-1.5548853874206543,-0.1940111368894577
1687149273433835800,1.603835693359375,0.5872265696525574,-1.5133401155471802,-0.04061317816376686
1687149273443891000,1.613890869140625,0.5478118062019348,-1.1628683805465698,-0.05339634045958519
1687149273453946400,1.6239462890625,0.3731085956096649,-0.5439502596855164,-0.21531641483306885
1687149273464001500,1.63400146484375,0.14620743691921234,0.08455529808998108,-0.46565335988998413
1687149273474056700,1.644056640625,-0.060453712940216064,0.5617933869361877,-0.7213166356086731
1687149273484112100,1.654112060546875,-0.2095906287431717,0.8451535701751709,-0.8811061978340149
1687149273494167300,1.664167236328125,-0.2649843394756317,0.9101346135139465,-0.8736493587493896
1687149273504222500,1.674222412109375,-0.23515695333480835,0.7695198059082031,-0.6893587112426758
1687149273514278000,1.68427783203125,-0.1478053331375122,0.5032039284706116,-0.3921501636505127
1687149273524333000,1.6943330078125,-0.05512739345431328,0.23262694478034973,-0.07576687633991241
1687149273534388500,1.704388427734375,0.0023968431632965803,-0.035819489508867264,0.1777658760547638
1687149273544443600,1.714443603515625,0.027963170781731606,-0.2978743314743042,0.3237069845199585
1687149273554498800,1.724498779296875,0.04500738903880119,-0.49707865715026855,0.3897533416748047
1687149273564554200,1.73455419921875,0.06418213248252869,-0.6504766345024109,0.41958072781562805
1687149273574609400,1.744609375,0.08868319541215897,-0.7484808564186096,0.41531965136528015
1687149273584664600,1.75466455078125,0.1153147891163826,-0.8102661371231079,0.3833617568016052
1687149273594720000,1.764719970703125,0.14088112115859985,-0.8560724854469299,0.3364901542663574
1687149273604775200,1.774775146484375,0.1344895362854004,-0.9135967493057251,0.27470487356185913
1687149273614830300,1.784830322265625,0.14194637537002563,-0.8464851379394531,0.186287984251976
1687149273624885800,1.7948857421875,0.16538217663764954,-0.6355628967285156,0.09574057161808014
1687149273634941000,1.80494091796875,0.14727269113063812,-0.48323023319244385,0.05206476151943207
1687149273644996400,1.814996337890625,0.105727419257164,-0.5322323441505432,0.11065425723791122
1687149273655051500,1.825051513671875,0.052464235574007034,-0.7665903568267822,0.2480732649564743
1687149273665106700,1.835106689453125,-0.0007989477599039674,-1.0488852262496948,0.42490702867507935
1687149273675162000,1.845162109375,-0.05938844755291939,-1.3066790103912354,0.5857618451118469
1687149273685217300,1.85521728515625,-0.10199899226427078,-1.5005569458007812,0.7072018980979919
1687149273695272400,1.8652724609375,-0.13502216339111328,-1.6646076440811157,0.7860314249992371
1687149273705327900,1.875327880859375,-0.17443692684173584,-1.777525544166565,0.8414251208305359
1687149273715383000,1.885383056640625,-0.19361166656017303,-1.9021613597869873,0.9191893935203552
1687149273725438200,1.895438232421875,-0.1904158741235733,-2.0704729557037354,1.0491515398025513
1687149273735493600,1.90549365234375,-0.17337165772914886,-2.2931132316589355,1.218528389930725
1687149273745548800,1.915548828125,-0.15845796465873718,-2.6116268634796143,1.4092106819152832
1687149273755604000,1.92560400390625,-0.1627190262079239,-3.026014566421509,1.6105455160140991
1687149273765659400,1.935659423828125,-0.1861548274755478,-3.4830126762390137,1.8033581972122192
1687149273775714600,1.945714599609375,-0.2234390527009964,-3.9453370571136475,1.9535603523254395
1687149273785770000,1.95577001953125,-0.2649843394756317,-4.339484691619873,2.020672082901001
1687149273795825200,1.9658251953125,-0.3491401672363281,-4.643084526062012,2.02599835395813
1687149273805880300,1.97588037109375,-0.49401602149009705,-4.94881534576416,2.0185413360595703
1687149273815935700,1.985935791015625,-0.6527402997016907,-5.318461894989014,2.0078887939453125
1687149273825991000,1.995990966796875,-0.768854022026062,-5.629518985748291,1.9418424367904663
1687149273836046000,2.006046142578125,-0.8317046165466309,-5.753089427947998,1.7756613492965698
1687149273846101500,2.0161015625,-0.8998814821243286,-5.778656005859375,1.5476949214935303
1687149273856156700,2.02615673828125,-1.019191026687622,-5.9096832275390625,1.3772526979446411
1687149273866211800,2.0362119140625,-1.1896331310272217,-6.3315277099609375,1.3506211042404175
1687149273876267300,2.046267333984375,-1.3323785066604614,-6.9120965003967285,1.4582127332687378
1687149273886322400,2.056322509765625,-1.4250564575195312,-7.350985050201416,1.6105455160140991
1687149273896377900,2.0663779296875,-1.4474269151687622,-7.3925299644470215,1.6851139068603516
1687149273906433000,2.07643310546875,-1.2961595058441162,-6.772546768188477,1.423059105873108
1687149273916488200,2.08648828125,-0.7411571741104126,-5.059602737426758,0.5101281404495239
1687149273926543600,2.096543701171875,0.3219759464263916,-1.8584855794906616,-1.261405348777771
1687149273936598800,2.106598876953125,1.9475682973861694,3.016160726547241,-3.9117813110351562
1687149273946654000,2.116654052734375,3.991809129714966,8.887893676757812,-7.2833404541015625
1687149273956709400,2.12670947265625,6.025397300720215,15.20810317993164,-11.016024589538574
1687149273966764500,2.1367646484375,7.646728515625,20.710189819335938,-14.481327056884766
1687149273976819700,2.14681982421875,8.612922668457031,24.808259963989258,-17.200944900512695
1687149273986875000,2.156875,9.157272338867188,26.60642433166504,-18.39936637878418
1687149273996930300,2.166930419921875,9.77725601196289,25.819194793701172,-16.980436325073242
1687149274006985500,2.1769853515625,10.555963516235352,23.828216552734375,-12.681031227111816
1687149274017040600,2.18704052734375,10.87447738647461,20.114707946777344,-7.383475303649902
1687149274027095800,2.197095703125,9.748494148254395,15.391328811645508,-2.2776668071746826
1687149274037151000,2.20715087890625,6.646446228027344,9.764606475830078,2.0536952018737793
1687149274047206100,2.2172060546875,2.8019096851348877,3.033205032348633,5.356012344360352
1687149274057261300,2.22726123046875,-0.1531316488981247,-4.120040416717529,7.2319416999816895
1687149274067316700,2.237316650390625,-1.2812458276748657,-9.438901901245117,7.5738911628723145
1687149274077372000,2.247371826171875,-1.0820415019989014,-12.099929809570312,7.160569190979004
1687149274087427000,2.257427001953125,-0.6282392144203186,-12.132953643798828,6.691853046417236
1687149274097482200,2.267482177734375,-0.4577970504760742,-10.287917137145996,6.383991718292236
1687149274107537400,2.277537353515625,-0.7081339955329895,-7.817570209503174,6.260421276092529
1687149274117592600,2.287592529296875,-1.2045468091964722,-6.259089469909668,6.2550950050354
1687149274127648000,2.29764794921875,-1.7915071249008179,-6.4199442863464355,6.342446327209473
1687149274137703200,2.307703125,-2.3326611518859863,-8.095603942871094,6.632198333740234
1687149274147758300,2.31775830078125,-2.6330654621124268,-10.826940536499023,7.213832378387451
1687149274157813500,2.3278134765625,-2.6895244121551514,-13.861876487731934,8.031954765319824
1687149274167868700,2.33786865234375,-2.660762310028076,-16.402530670166016,8.926775932312012
1687149274177923800,2.347923828125,-2.715090751647949,-17.807613372802734,9.676721572875977
1687149274187979300,2.357979248046875,-2.7971160411834717,-18.141040802001953,9.937711715698242
1687149274198034400,2.368034423828125,-2.86529278755188,-17.914138793945312,9.61280632019043
1687149274208089600,2.378089599609375,-2.884467601776123,-17.50933837890625,8.912927627563477
1687149274218144800,2.388144775390625,-2.7395918369293213,-16.800939559936523,7.9616475105285645
1687149274228200000,2.398199951171875,-2.1142818927764893,-15.107169151306152,6.543781280517578
1687149274238255000,2.408255126953125,-0.6356960535049438,-11.396856307983398,4.122437000274658
1687149274248310300,2.418310302734375,1.6088143587112427,-4.89874792098999,0.2960101366043091
1687149274258365700,2.42836572265625,4.46159029006958,3.989811897277832,-4.4806318283081055
1687149274268420900,2.4384208984375,7.484808444976807,11.531878471374512,-8.890823364257812
1687149274278476000,2.44847607421875,10.121335983276367,16.221168518066406,-12.721511840820312
1687149274288531200,2.45853125,12.096335411071777,18.948244094848633,-15.972696304321289
1687149274298586400,2.46858642578125,13.40554428100586,20.944547653198242,-18.47926139831543
1687149274308641500,2.4786416015625,13.906217575073242,22.505159378051758,-19.275012969970703
1687149274318697000,2.488697021484375,13.290495872497559,24.042335510253906,-17.424650192260742
1687149274328752000,2.498752197265625,12.067572593688965,24.910524368286133,-13.38836669921875
1687149274338807300,2.508807373046875,10.75410270690918,24.66657829284668,-8.547808647155762
1687149274348862500,2.518862548828125,9.0262451171875,22.631925582885742,-4.15146541595459
1687149274358917600,2.528917724609375,6.9255452156066895,18.576467514038086,-0.6691187024116516
1687149274368972800,2.538972900390625,4.603270530700684,12.89648151397705,1.9748656749725342
1687149274379028200,2.5490283203125,2.6794042587280273,6.161884307861328,3.9733002185821533
1687149274389083400,2.55908349609375,1.7036229372024536,-0.8422240614891052,5.351751327514648
1687149274399138600,2.569138671875,1.6578165292739868,-6.158955097198486,6.075065612792969
1687149274409193700,2.57919384765625,1.9283934831619263,-8.824244499206543,6.340315818786621
1687149274419249000,2.589248779296875,2.0029618740081787,-9.221588134765625,6.439385414123535
1687149274429304000,2.599303955078125,1.7760608196258545,-7.933684349060059,6.336054801940918
1687149274439359200,2.609359130859375,1.3723258972167969,-5.578386306762695,5.759747505187988
1687149274449414700,2.61941455078125,0.9270457029342651,-2.746915340423584,4.681700706481934
1687149274459469800,2.6294697265625,0.5233107805252075,-0.2456764280796051,3.3266851902008057
1687149274469525000,2.63952490234375,0.16857796907424927,1.4417011737823486,1.9791266918182373
1687149274479580200,2.649580078125,-0.1765674501657486,2.177798271179199,0.9330378174781799
1687149274489635300,2.65963525390625,-0.5270391702651978,1.988181471824646,0.3471427857875824
1687149274499690500,2.6696904296875,-0.8615319728851318,1.0113346576690674,0.20759324729442596
1687149274509746000,2.679745849609375,-1.0948246717453003,-0.3532680571079254,0.37377437949180603
1687149274519801000,2.689801025390625,-1.1566100120544434,-1.6752601861953735,0.715723991394043
1687149274529856300,2.699856201171875,-1.0341047048568726,-2.772481679916382,1.117328405380249
1687149274539911400,2.709911376953125,-0.7976161241531372,-3.585278034210205,1.4656696319580078
1687149274549966800,2.719966796875,-0.5398223400115967,-4.122170925140381,1.7287896871566772
1687149274560022000,2.73002197265625,-0.3352917432785034,-4.430031776428223,1.901362419128418
1687149274570077400,2.740077392578125,-0.19361166656017303,-4.569581508636475,1.955690860748291
1687149274580132600,2.750132568359375,-0.06471476703882217,-4.680368900299072,1.8779265880584717
1687149274590187800,2.760187744140625,0.08655267208814621,-4.888095378875732,1.6723307371139526
1687149274600243200,2.7702431640625,0.24634221196174622,-5.235371112823486,1.4166674613952637
1687149274610298400,2.78029833984375,0.3986749053001404,-5.8351149559021,1.18976628780365
1687149274620353500,2.790353515625,0.5201149582862854,-6.595713138580322,0.9820399284362793
1687149274630409000,2.800408935546875,0.6277065873146057,-7.337136268615723,0.7785745859146118
1687149274640464100,2.810464111328125,0.7225150465965271,-7.98375129699707,0.5878923535346985
1687149274650519300,2.820519287109375,0.8119972348213196,-8.52490520477295,0.44834282994270325
1687149274660574700,2.83057470703125,0.8748477697372437,-8.964859008789062,0.40147122740745544
1687149274670630000,2.8406298828125,0.9121319651603699,-9.241827964782715,0.4281028211116791
1687149274680685300,2.850685302734375,0.9249151349067688,-9.185368537902832,0.46219125390052795
1687149274690740500,2.860740478515625,0.8982835412025452,-8.71239185333252,0.43342915177345276
1687149274700795600,2.870795654296875,0.7289066314697266,-7.771764278411865,0.33542490005493164
1687149274710851000,2.88085107421875,0.4125233590602875,-6.431662559509277,0.18841850757598877
1687149274720906200,2.89090625,0.10679268091917038,-4.8785080909729,-0.0022636852227151394
1687149274730961400,2.90096142578125,-0.08495477586984634,-3.3637030124664307,-0.16844481229782104
1687149274741016800,2.911016845703125,-0.18508955836296082,-2.1535634994506836,-0.2131858915090561
1687149274751072000,2.921072021484375,-0.19680745899677277,-1.4014874696731567,-0.1567269116640091
1687149274761127200,2.931127197265625,-0.1009337306022644,-0.9583377838134766,-0.08961530029773712
1687149274771182600,2.9411826171875,0.04394212365150452,-0.737828254699707,-0.07683213800191879
1687149274781237800,2.95123779296875,0.1771000772714615,-0.7058703303337097,-0.11944268643856049
1687149274791293000,2.96129296875,0.27190855145454407,-0.7793735265731812,-0.18868482112884521
1687149274801348400,2.971348388671875,0.30173593759536743,-0.8294408917427063,-0.2504701018333435
1687149274811403500,2.981403564453125,0.2644517123699188,-0.8102661371231079,-0.2888196110725403
1687149274821459000,2.991458984375,0.1621863842010498,-0.7516766786575317,-0.30479857325553894
1687149274831514000,3.00151416015625,0.005592633970081806,-0.6813692450523376,-0.2941459119319916
1687149274841569300,3.0115693359375,-0.1627190262079239,-0.6078660488128662,-0.26751431822776794
1687149274851624700,3.021624755859375,-0.3022685647010803,-0.5737776160240173,-0.21105535328388214
1687149274861679900,3.031679931640625,-0.41518649458885193,-0.608931303024292,-0.10985531657934189
1687149274871735000,3.041735107421875,-0.4865591824054718,-0.7250450849533081,0.021172115579247475
1687149274881790200,3.051790283203125,-0.5227781534194946,-0.8518114686012268,0.15965639054775238
1687149274891845400,3.061845458984375,-0.5355613231658936,-0.9434241056442261,0.27044379711151123
1687149274901900500,3.071900634765625,-0.5440834164619446,-0.9956220388412476,0.3183806836605072
1687149274911956000,3.0819560546875,-0.5558013319969177,-0.9412935972213745,0.29387959837913513
1687149274922011100,3.09201123046875,-0.5749760270118713,-0.81346195936203,0.20972378551959991
1687149274932066300,3.10206640625,-0.6048034429550171,-0.6504766345024109,0.10745847225189209
1687149274942121500,3.11212158203125,-0.6612623929977417,-0.5322323441505432,0.03395527973771095
1687149274952176600,3.1221767578125,-0.7550055980682373,-0.5535376071929932,0.029694223776459694
1687149274962231800,3.132231689453125,-0.851944625377655,-0.6973482370376587,0.10852373391389847
1687149274972287200,3.142287353515625,-0.9446225166320801,-0.9008135795593262,0.23742063343524933
1687149274982342400,3.15234228515625,-1.0298435688018799,-1.1064094305038452,0.38762280344963074
1687149274992397600,3.1623974609375,-1.121456265449524,-1.3077442646026611,0.5324986577033997
1687149275002452700,3.17245263671875,-1.2588752508163452,-1.5783212184906006,0.6880271434783936
1687149275012508000,3.1825078125,-1.4708627462387085,-2.011883497238159,0.8872314691543579
1687149275022563000,3.19256298828125,-1.7275912761688232,-2.637193202972412,1.164199948310852
1687149275032618200,3.2026181640625,-1.9939072132110596,-3.347724199295044,1.5082801580429077
1687149275042673700,3.212673583984375,-2.2378525733947754,-4.001796245574951,1.851294994354248
1687149275052728800,3.222728759765625,-2.4455790519714355,-4.51312255859375,2.1378509998321533
1687149275062784000,3.232783935546875,-2.636261224746704,-4.843354225158691,2.3391857147216797
1687149275072839200,3.242839111328125,-2.801377058029175,-5.003143787384033,2.4680826663970947
1687149275082894300,3.252894287109375,-2.944122314453125,-5.040428161621094,2.5873923301696777
1687149275092949500,3.262949462890625,-3.0794107913970947,-4.964794158935547,2.6672871112823486
1687149275103005000,3.2730048828125,-3.0368003845214844,-4.535492897033691,2.5522384643554688
1687149275113060000,3.28306005859375,-2.5244085788726807,-3.4585115909576416,2.0132150650024414
1687149275123115300,3.293115234375,-1.3728585243225098,-1.3897695541381836,0.7370292544364929
1687149275133170400,3.30317041015625,0.5808349847793579,2.12986159324646,-1.4946980476379395
1687149275143225600,3.3132255859375,3.281278371810913,7.2122344970703125,-4.76718807220459
1687149275153280800,3.32328076171875,6.375869274139404,12.735626220703125,-8.822647094726562
1687149275163336200,3.333336181640625,9.3341064453125,17.120250701904297,-12.968652725219727
1687149275173391400,3.343391357421875,11.482743263244629,20.343738555908203,-16.5234375
1687149275183446500,3.353446533203125,12.721644401550293,22.671340942382812,-18.92134666442871
1687149275193501700,3.363501708984375,13.311800956726074,23.91450309753418,-18.717880249023438
1687149275203556900,3.373556884765625,13.073182106018066,24.98615837097168,-14.806232452392578
1687149275213612000,3.383612060546875,12.26890754699707,24.627164840698242,-9.163531303405762
1687149275223667200,3.393667236328125,10.878738403320312,22.060943603515625,-4.037482261657715
1687149275233722600,3.40372265625,8.321040153503418,17.380176544189453,0.25553011894226074
1687149275243777800,3.41377783203125,4.861064434051514,10.609359741210938,3.6057841777801514
1687149275253833000,3.4238330078125,1.5448986291885376,2.5229437351226807,6.064412593841553
1687149275263888100,3.43388818359375,-0.028495801612734795,-5.135236740112305,7.260704040527344
1687149275273943300,3.443943359375,0.11851058155298233,-9.59123420715332,7.538737773895264
1687149275283998500,3.45399853515625,0.6010749936103821,-10.728936195373535,7.431146144866943
1687149275294054000,3.464053955078125,0.7491466403007507,-9.350484848022461,7.238333225250244
1687149275304109000,3.474109130859375,0.3464770019054413,-6.741653919219971,6.9986491203308105
1687149275314164200,3.484164306640625,-0.4673844277858734,-4.179695129394531,6.592783451080322
1687149275324219400,3.494219482421875,-1.2407658100128174,-2.7799386978149414,5.988779067993164
1687149275334274600,3.504274658203125,-1.8181387186050415,-3.030275583267212,5.4604082107543945
1687149275344329700,3.514329833984375,-2.2112209796905518,-4.746415138244629,5.3613386154174805
1687149275354385200,3.52438525390625,-2.53719162940979,-7.345658779144287,5.841772556304932
1687149275364440300,3.5344404296875,-2.908968687057495,-10.116409301757812,6.827141284942627
1687149275374495500,3.54449560546875,-3.197655200958252,-12.553732872009277,7.970169544219971
1687149275384550700,3.554550537109375,-3.4618406295776367,-14.263481140136719,8.971517562866211
1687149275394605800,3.564605712890625,-3.6802196502685547,-15.319156646728516,9.704418182373047
1687149275404661000,3.574660888671875,-3.8005943298339844,-15.764436721801758,10.043172836303711
1687149275414716200,3.584716064453125,-3.738809108734131,-15.7207612991333,9.92386245727539
1687149275424771600,3.594771484375,-3.410707950592041,-15.247784614562988,9.28470516204834
1687149275434826800,3.60482666015625,-2.755570650100708,-14.347636222839355,8.058586120605469
1687149275444882000,3.6148818359375,-1.5784543752670288,-12.426965713500977,5.98984432220459
1687149275454937000,3.62493701171875,0.31984540820121765,-8.913726806640625,2.615089178085327
1687149275464992300,3.6349921875,2.6783390045166016,-3.857985496520996,-1.6576833724975586
1687149275475047400,3.64504736328125,5.239233016967773,1.7271918058395386,-6.1424431800842285
1687149275485102800,3.655102783203125,7.812910079956055,6.450570583343506,-10.289514541625977
1687149275495158000,3.665157958984375,10.11814022064209,9.998964309692383,-13.85175609588623
1687149275505213200,3.675213134765625,11.98128604888916,12.796346664428711,-16.752470016479492
1687149275515268400,3.685268310546875,13.271320343017578,15.023812294006348,-18.945846557617188
1687149275525323500,3.695323486328125,14.06920337677002,16.274431228637695,-19.794862747192383
1687149275535378700,3.705378662109375,14.216209411621094,17.9777889251709,-18.182052612304688
1687149275545433900,3.715433837890625,13.679316520690918,20.29899787902832,-14.06480884552002
1687149275555489000,3.725489013671875,13.008200645446777,21.364261627197266,-9.039960861206055
1687149275565544200,3.735544189453125,11.70538330078125,20.613250732421875,-4.86732292175293
1687149275575599400,3.745599365234375,9.531180381774902,18.001224517822266,-1.7429044246673584
1687149275585654500,3.755654541015625,6.385456562042236,13.65281867980957,0.9564735889434814
1687149275595709700,3.765709716796875,3.1694257259368896,7.232474327087402,3.6249589920043945
1687149275605764900,3.775764892578125,1.0889657735824585,-0.7058703303337097,5.9419074058532715
1687149275615820000,3.785820068359375,0.5414202213287354,-6.8843994140625,7.3597731590271
1687149275625875200,3.795875244140625,0.7715172171592712,-9.892704010009766,8.03302001953125
1687149275635930400,3.805930419921875,1.0729868412017822,-10.201630592346191,8.283356666564941
1687149275645985300,3.8159853515625,1.3275848627090454,-8.431161880493164,8.142742156982422
1687149275656040400,3.82604052734375,1.3733911514282227,-5.449489116668701,7.399188041687012
1687149275666095600,3.836095703125,1.279647946357727,-1.8180055618286133,6.006888389587402
1687149275676150800,3.84615087890625,1.163534164428711,1.380981206893921,4.148003578186035
1687149275686206000,3.8562060546875,0.9398288726806641,3.4465272426605225,2.2518341541290283
1687149275696261000,3.86626123046875,0.49454864859580994,4.129361152648926,0.8488819599151611
1687149275706316300,3.87631640625,-0.15100112557411194,3.6286873817443848,0.15219953656196594
1687149275716371500,3.886371337890625,-0.8551403880119324,2.3194785118103027,0.08082687854766846
1687149275726426600,3.896426513671875,-1.4026858806610107,0.7503450512886047,0.3567301630973816
1687149275736481800,3.906481689453125,-1.6924376487731934,-0.6259755492210388,0.7199850678443909
1687149275746537000,3.916536865234375,-1.7808544635772705,-1.6241276264190674,1.0182589292526245
1687149275756592000,3.926592041015625,-1.7851155996322632,-2.182325839996338,1.19722318649292
1687149275766647300,3.936647216796875,-1.7435702085494995,-2.4454457759857178,1.3080105781555176
1687149275776702500,3.946702392578125,-1.6583491563796997,-2.5796689987182617,1.3570127487182617
1687149275786757600,3.956757568359375,-1.5709975957870483,-2.742654323577881,1.3420990705490112
1687149275796812800,3.966812744140625,-1.4996248483657837,-3.1527810096740723,1.3122715950012207
1687149275806868000,3.976867919921875,-1.4101427793502808,-3.908052921295166,1.3218590021133423
1687149275816923100,3.986923095703125,-1.2812458276748657,-4.970120906829834,1.4060148000717163
1687149275826978300,3.996978271484375,-1.1171952486038208,-6.27080774307251,1.5945664644241333
1687149275837033500,4.007033447265625,-0.9052077531814575,-7.777090549468994,1.908819317817688
1687149275847088600,4.017088623046875,-0.5781718492507935,-9.405878067016602,2.312554121017456
1687149275857143800,4.027143798828125,-0.18189376592636108,-10.99844741821289,2.6736786365509033
1687149275867199000,4.037198974609375,0.2644517123699188,-12.15532398223877,2.909101963043213
1687149275877254100,4.047254150390625,0.7246456146240234,-12.767850875854492,2.9048407077789307
1687149275887309300,4.057309326171875,1.0729868412017822,-12.775307655334473,2.585261583328247
1687149275897364500,4.067364501953125,1.1869699954986572,-11.772893905639648,2.0739352703094482
1687149275907419600,4.077419677734375,1.1486204862594604,-9.732913970947266,1.4848443269729614
1687149275917475000,4.08747509765625,1.0154625177383423,-7.281742572784424,0.8435556292533875
1687149275927530200,4.0975302734375,0.8311719298362732,-5.051080703735352,0.23102904856204987
1687149275937585400,4.10758544921875,0.6202497482299805,-3.5724947452545166,-0.26112276315689087
1687149275947640600,4.117640625,0.39441385865211487,-2.6510417461395264,-0.5689839720726013
1687149275957695700,4.12769580078125,0.18455693125724792,-1.8510286808013916,-0.5998765826225281
1687149275967751000,4.1377509765625,0.06418213248252869,-1.1639336347579956,-0.41878175735473633
1687149275977806300,4.147806396484375,0.03861580789089203,-0.6270408034324646,-0.23981747031211853
1687149275987861500,4.157861572265625,0.0918789878487587,-0.22863221168518066,-0.13861742615699768
1687149275997916700,4.167916748046875,0.21544957160949707,-0.09760478138923645,-0.08002793043851852
1687149276007971800,4.177971923828125,0.33795487880706787,-0.2978743314743042,0.03821633383631706
1687149276018027000,4.188027099609375,0.3784348964691162,-0.8283756375312805,0.2661827504634857
1687149276028082200,4.198082275390625,0.31984540820121765,-1.516535997390747,0.6145239472389221
1687149276038137600,4.2081376953125,0.18349166214466095,-2.12693190574646,1.0161283016204834
1687149276048192800,4.21819287109375,0.03435475379228592,-2.5466458797454834,1.3293159008026123
1687149276058248000,4.228248046875,-0.11265163123607635,-2.653172254562378,1.4667348861694336
1687149276068303000,4.23830322265625,-0.2649843394756317,-2.449706792831421,1.4315811395645142
1687149276078358300,4.248358154296875,-0.372575968503952,-1.9884477853775024,1.2675305604934692
1687149276088413400,4.258413330078125,-0.3928159773349762,-1.3418327569961548,1.0214546918869019
1687149276098468600,4.268468505859375,-0.35659700632095337,-0.7175882458686829,0.7199850678443909
1687149276108524000,4.27852392578125,-0.3043990731239319,-0.2041311413049698,0.40040597319602966
1687149276118579200,4.2885791015625,-0.2468748539686203,0.24541011452674866,0.09467530250549316
1687149276128634400,4.29863427734375,-0.20106850564479828,0.5543365478515625,-0.16418376564979553
1687149276138689500,4.308689453125,-0.18935060501098633,0.6448839902877808,-0.33675646781921387
1687149276148744700,4.31874462890625,-0.2553969621658325,0.4605933725833893,-0.36019226908683777
1687149276158800000,4.3287998046875,-0.41944757103919983,0.061119500547647476,-0.21851220726966858
1687149276168855300,4.338855224609375,-0.6186518669128418,-0.411857545375824,0.029694223776459694
1687149276178910500,4.348910400390625,-0.7976161241531372,-0.8528767228126526,0.30240172147750854
1687149276188965600,4.358965576171875,-0.9467530846595764,-1.1852389574050903,0.5548691749572754
1687149276199020800,4.369020751953125,-1.0724542140960693,-1.4270538091659546,0.7593998312950134
1687149276209076000,4.379075927734375,-1.188567876815796,-1.6369107961654663,0.9010798931121826
1687149276219131100,4.389131103515625,-1.3430311679840088,-1.8606160879135132,1.0214546918869019
1687149276229186600,4.3991865234375,-1.5507575273513794,-2.205761432647705,1.1887010335922241
1687149276239241700,4.40924169921875,-1.77339768409729,-2.608431100845337,1.4049495458602905
1687149276249297000,4.419296875,-1.971536636352539,-2.980208158493042,1.6297202110290527
1687149276259352000,4.42935205078125,-2.1622188091278076,-3.2965915203094482,1.8257287740707397
1687149276269407200,4.4394072265625,-2.3113558292388916,-3.5298843383789062,1.9716697931289673
1687149276279462400,4.44946240234375,-2.3614232540130615,-3.650259017944336,2.0238678455352783
1687149276289517600,4.459517578125,-2.2570273876190186,-3.5479936599731445,1.9194719791412354
1687149276299573000,4.469572998046875,-1.9022945165634155,-3.0760819911956787,1.556217074394226
1687149276309628200,4.479628173828125,-1.2215911149978638,-2.1141488552093506,0.8020103573799133
1687149276319683300,4.489683349609375,-0.07856319099664688,-0.5151881575584412,-0.5966808199882507
1687149276329738500,4.499738525390625,1.6141407489776611,2.065945625305176,-2.9743492603302
1687149276339793700,4.509793701171875,3.7095143795013428,6.069206237792969,-6.368278980255127
1687149276349848800,4.519848876953125,5.982787132263184,10.6732759475708,-10.204293251037598
1687149276359904300,4.529904296875,8.243276596069336,14.940722465515137,-13.940173149108887
1687149276369959400,4.53995947265625,10.281126022338867,18.42413330078125,-17.015588760375977
1687149276380014600,4.5500146484375,11.817235946655273,20.761322021484375,-18.876604080200195
1687149276390069800,4.56006982421875,12.862259864807129,21.799955368041992,-18.485652923583984
1687149276400125000,4.570125,13.524853706359863,22.139774322509766,-15.16416072845459
1687149276410180000,4.58018017578125,13.730449676513672,21.269453048706055,-9.716403007507324
1687149276420235300,4.5902353515625,13.123249053955078,18.990854263305664,-4.0246992111206055
1687149276430290400,4.60029052734375,10.735993385314941,15.224081993103027,0.7103977203369141
1687149276440345600,4.610345703125,7.09066104888916,9.630382537841797,4.313119411468506
1687149276450400800,4.62040087890625,3.3686299324035645,1.8028255701065063,6.651372909545898
1687149276460456000,4.6304560546875,0.9973530769348145,-6.491317272186279,7.38960075378418
1687149276470511000,4.640510986328125,0.435959130525589,-11.76224136352539,6.952842712402344
1687149276480566300,4.650566162109375,0.49348339438438416,-13.908747673034668,6.331793785095215
1687149276490621400,4.660621337890625,0.18242639303207397,-13.692499160766602,6.068673610687256
1687149276500676600,4.670676513671875,-0.6037381887435913,-12.239480018615723,6.185853004455566
1687149276510731800,4.680731689453125,-1.7851155996322632,-10.60216999053955,6.501170635223389
1687149276520787000,4.690786865234375,-3.077280282974243,-9.657280921936035,6.843120574951172
1687149276530842000,4.700842041015625,-4.083954334259033,-9.779786109924316,7.187200546264648
1687149276540897300,4.710897216796875,-4.626173496246338,-10.637323379516602,7.601588249206543
1687149276550952700,4.72095263671875,-4.86585807800293,-11.885811805725098,8.077760696411133
1687149276561007600,4.731007568359375,-5.036300182342529,-13.146018981933594,8.646612167358398
1687149276571062800,4.741062744140625,-5.188632965087891,-14.19849967956543,9.107871055603027
1687149276581118000,4.751117919921875,-5.234439373016357,-14.807830810546875,9.300683975219727
1687149276591173000,4.761173095703125,-5.122586727142334,-15.099712371826172,9.141959190368652
1687149276601228300,4.771228271484375,-4.845617771148682,-15.200912475585938,8.752073287963867
1687149276611283500,4.781283447265625,-4.372641086578369,-15.043253898620605,8.206658363342285
1687149276621338600,4.791338623046875,-3.648261547088623,-14.264546394348145,7.312901973724365
1687149276631393800,4.801393798828125,-2.6085643768310547,-12.32257080078125,5.7927703857421875
1687149276641449000,4.811448974609375,-1.091628909111023,-9.10014820098877,3.597262144088745
1687149276651504000,4.821504150390625,0.9984183311462402,-4.856137275695801,0.6443513631820679
1687149276661559300,4.831559326171875,3.499657392501831,0.24541011452674866,-2.9626312255859375
1687149276671614500,4.841614501953125,6.151098728179932,5.055075645446777,-6.714489936828613
1687149276681669600,4.851669677734375,8.756733894348145,8.766453742980957,-10.269274711608887
1687149276691724800,4.861724853515625,11.036397933959961,11.702320098876953,-13.615267753601074
1687149276701780000,4.871780029296875,12.918718338012695,14.320738792419434,-16.545808792114258
1687149276711835100,4.881835205078125,14.447371482849121,16.836891174316406,-18.898975372314453
1687149276721890300,4.891890380859375,15.766168594360352,18.674470901489258,-19.957847595214844
1687149276731945500,4.901945556640625,16.48522186279297,20.14879608154297,-18.678464889526367
1687149276742000600,4.912000732421875,16.308387756347656,21.134164810180664,-15.085331916809082
1687149276752055800,4.922055908203125,15.795995712280273,21.44841766357422,-9.875126838684082
1687149276762111000,4.932111083984375,14.054289817810059,20.422569274902344,-5.026047229766846
1687149276772166100,4.942166259765625,10.760494232177734,18.070466995239258,-1.207076907157898
1687149276782221000,4.952220947265625,6.826475620269775,14.379327774047852,1.7287896871566772
1687149276792276200,4.962276123046875,3.0021791458129883,8.386155128479004,3.8582518100738525
1687149276802331400,4.972331298828125,0.6617950201034546,0.23795326054096222,5.014062881469727
1687149276812386600,4.982386474609375,0.2005358785390854,-6.840723514556885,5.386905193328857
1687149276822441700,4.992441650390625,0.7086666226387024,-10.073799133300781,5.655351638793945
1687149276832497000,5.002496826171875,1.217862606048584,-10.242110252380371,6.180526256561279
1687149276842552000,5.012552001953125,1.493765950202942,-8.287351608276367,6.60343599319458
1687149276852607200,5.022607177734375,1.4873743057250977,-5.0319061279296875,6.361621379852295
1687149276862662400,5.032662353515625,1.339302659034729,-1.2949610948562622,5.286770343780518
1687149276872717600,5.042717529296875,1.1614036560058594,1.7911076545715332,3.648394823074341
1687149276882772700,5.052772705078125,0.9483509659767151,3.63720965385437,1.9993666410446167
1687149276892828000,5.062827880859375,0.6266413331031799,4.162384510040283,0.8297072052955627
1687149276902883000,5.072883056640625,0.21225377917289734,3.5541188716888428,0.327968031167984
1687149276912938200,5.082938232421875,-0.22983063757419586,2.1724720001220703,0.3599259555339813
1687149276922993400,5.092993408203125,-0.5920202732086182,0.5585976243019104,0.6901576519012451
1687149276933048600,5.103048583984375,-0.7986814379692078,-0.8006787896156311,1.0693914890289307
1687149276943103700,5.113103759765625,-0.8636624813079834,-1.7018917798995972,1.3165327310562134
1687149276953159000,5.123158935546875,-0.7848330140113831,-2.1194751262664795,1.3335769176483154
1687149276963214000,5.133214111328125,-0.6143907904624939,-2.1034963130950928,1.1492862701416016
1687149276973269200,5.143269287109375,-0.41944757103919983,-1.8467676639556885,0.8637956380844116
1687149276983324400,5.153324462890625,-0.2553969621658325,-1.5772559642791748,0.5538039207458496
1687149276993379600,5.163379638671875,-0.1669800728559494,-1.4206621646881104,0.27363958954811096
1687149277003434500,5.1734345703125,-0.1392832249403,-1.3684643507003784,0.03502054139971733
1687149277013489700,5.18348974609375,-0.12863057851791382,-1.3620727062225342,-0.15459638833999634
1687149277023544800,5.193544921875,-0.13502216339111328,-1.4036179780960083,-0.32290804386138916
1687149277033600000,5.20360009765625,-0.16378428041934967,-1.4632728099822998,-0.4773712754249573
1687149277043655200,5.2136552734375,-0.20213377475738525,-1.529319167137146,-0.6169208288192749
1687149277053710300,5.22371044921875,-0.24580958485603333,-1.6592812538146973,-0.7351650595664978
1687149277063765500,5.233765625,-0.3086601495742798,-1.881921410560608,-0.7948198318481445
1687149277073820700,5.243820556640625,-0.38962018489837646,-2.0843214988708496,-0.7617966532707214
1687149277083875800,5.253875732421875,-0.4631233811378479,-2.1738035678863525,-0.6542050242424011
1687149277093931000,5.263930908203125,-0.5185170769691467,-2.151432991027832,-0.5242428779602051
1687149277103986200,5.273986083984375,-0.5568665862083435,-2.0406455993652344,-0.4102596640586853
1687149277114041300,5.284041259765625,-0.5589970946311951,-1.9074877500534058,-0.32290804386138916
1687149277124096500,5.294096435546875,-0.5185170769691467,-1.8712687492370605,-0.24407853186130524
1687149277134151700,5.304151611328125,-0.44181808829307556,-1.9863171577453613,-0.12476900219917297
1687149277144206800,5.314206787109375,-0.3491401672363281,-2.2526330947875977,0.07550056278705597
1687149277154262000,5.324261962890625,-0.29268118739128113,-2.6861953735351562,0.37270912528038025
1687149277164317200,5.334317138671875,-0.33848753571510315,-3.282742977142334,0.7721830010414124
1687149277174372400,5.344372314453125,-0.4929507374763489,-4.025231838226318,1.2717915773391724
1687149277184427500,5.354427490234375,-0.7262434959411621,-4.832701683044434,1.8800572156906128
1687149277194482700,5.364482666015625,-0.9957551956176758,-5.669999122619629,2.4702131748199463
1687149277204537900,5.374537841796875,-1.207742691040039,-6.409291744232178,2.843055486679077
1687149277214593000,5.384593017578125,-1.3153343200683594,-6.8471150398254395,3.011367082595825
1687149277224648000,5.39464794921875,-1.3057469129562378,-7.044188976287842,3.052912473678589
1687149277234703000,5.404703125,-1.2279826402664185,-7.150715351104736,3.06782603263855
1687149277244758300,5.41475830078125,-1.1683279275894165,-7.193325996398926,3.1434597969055176
1687149277254813400,5.4248134765625,-1.151283621788025,-7.098517417907715,3.29046630859375
1687149277264868600,5.43486865234375,-1.1491531133651733,-6.858833312988281,3.4417335987091064
1687149277274923800,5.444923828125,-1.1523489952087402,-6.585060119628906,3.523758888244629
1687149277284979000,5.45497900390625,-1.1491531133651733,-6.374138355255127,3.4907357692718506
1687149277295034000,5.4650341796875,-1.140631079673767,-6.152563095092773,3.3288156986236572
1687149277305089300,5.47508935546875,-1.1342394351959229,-5.902226448059082,3.076348304748535
1687149277315144400,5.48514453125,-1.128913164138794,-5.608213424682617,2.7706174850463867
1687149277325199600,5.49519970703125,-1.1321089267730713,-5.309939861297607,2.4393205642700195
1687149277335254800,5.5052548828125,-1.1523489952087402,-5.095821857452393,2.130394220352173
1687149277345310000,5.51531005859375,-1.1853721141815186,-4.983969211578369,1.858751893043518
1687149277355365000,5.525365234375,-1.2418310642242432,-4.96905517578125,1.6606128215789795
1687149277365420300,5.535420166015625,-1.359010100364685,-5.089430332183838,1.5903054475784302
1687149277375475500,5.545475341796875,-1.5134732723236084,-5.3195271492004395,1.6371771097183228
1687149277385530600,5.555530517578125,-1.6679365634918213,-5.536840915679932,1.737311840057373
1687149277395585800,5.565585693359375,-1.8106818199157715,-5.711544036865234,1.841707706451416
1687149277405641000,5.575640869140625,-1.937448263168335,-5.872398853302002,1.9322550296783447
1687149277415696100,5.585696044921875,-2.040778875350952,-5.976794719696045,1.980191946029663
1687149277425751300,5.595751220703125,-2.0642147064208984,-5.927792549133301,1.9279940128326416
1687149277435806200,5.60580615234375,-1.8639450073242188,-5.5134053230285645,1.6137412786483765
1687149277445861400,5.615861328125,-1.2365047931671143,-4.438554286956787,0.8275766968727112
1687149277455916500,5.62591650390625,0.007723161485046148,-2.4571638107299805,-0.755405068397522
1687149277465971700,5.6359716796875,1.9635472297668457,0.9815073013305664,-3.422825336456299
1687149277476027000,5.64602685546875,4.515918731689453,5.602621078491211,-6.9062371253967285
1687149277486082000,5.65608203125,7.344193935394287,10.371806144714355,-10.565418243408203
1687149277496137200,5.66613720703125,10.141575813293457,14.931134223937988,-14.027524948120117
1687149277506192400,5.6761923828125,12.587421417236328,18.975940704345703,-17.011327743530273
1687149277516247600,5.68624755859375,14.61248779296875,22.18877601623535,-18.968217849731445
1687149277526302700,5.696302734375,16.03248405456543,23.75151824951172,-18.84038543701172
1687149277536358000,5.70635791015625,16.517179489135742,24.47696304321289,-15.828886032104492
1687149277546413000,5.7164130859375,16.62051010131836,24.16910171508789,-10.797645568847656
1687149277556468200,5.72646826171875,15.880151748657227,22.354957580566406,-5.648160934448242
1687149277566523400,5.7365234375,13.269189834594727,18.98446273803711,-1.1772494316101074
1687149277576578600,5.74657861328125,8.619314193725586,13.110599517822266,2.5841963291168213
1687149277586633700,5.7566337890625,3.0618340969085693,3.6052515506744385,5.588239669799805
1687149277596689000,5.76668896484375,-0.8221172094345093,-7.572559833526611,6.814358234405518
1687149277606744000,5.776744140625,-1.827726125717163,-14.907964706420898,6.519280433654785
1687149277616799200,5.78679931640625,-1.3685975074768066,-17.059797286987305,6.306227684020996
1687149277626854400,5.7968544921875,-1.2045468091964722,-15.24991512298584,6.637524604797363
1687149277636909600,5.80690966796875,-1.4495575428009033,-11.223217964172363,7.401318550109863
1687149277646964700,5.81696484375,-1.8170734643936157,-7.007969856262207,7.750725269317627
1687149277657019600,5.82701953125,-2.081258773803711,-3.976229667663574,7.427950382232666
1687149277667074800,5.83707470703125,-2.3518357276916504,-2.851311206817627,6.805836200714111
1687149277677130000,5.8471298828125,-2.671414852142334,-3.5842127799987793,6.343512058258057
1687149277687185200,5.85718505859375,-3.033604621887207,-6.003426551818848,6.430863380432129
1687149277697240300,5.867240234375,-3.439470052719116,-9.259937286376953,7.132872104644775
1687149277707295500,5.87729541015625,-3.7611796855926514,-12.33535385131836,8.122502326965332
1687149277717350700,5.8873505859375,-4.012581825256348,-14.517013549804688,8.97684383392334
1687149277727405800,5.89740576171875,-4.212851524353027,-15.739935874938965,9.572325706481934
1687149277737461000,5.9074609375,-4.320443153381348,-16.174564361572266,9.839707374572754
1687149277747516200,5.91751611328125,-4.324704170227051,-16.240610122680664,9.757681846618652
1687149277757571300,5.9275712890625,-4.205394744873047,-16.19693374633789,9.4476900100708
1687149277767626500,5.93762646484375,-3.881554365158081,-15.958314895629883,8.958734512329102
1687149277777681700,5.947681640625,-3.272223472595215,-15.279742240905762,8.10013198852539
1687149277787736800,5.95773681640625,-2.1718063354492188,-13.58277702331543,6.678004741668701
1687149277797792000,5.9677919921875,-0.3960117697715759,-10.443445205688477,4.424972057342529
1687149277807847200,5.97784716796875,1.9188060760498047,-5.757350444793701,1.335707426071167
1687149277817902300,5.98790234375,4.68209981918335,0.5170523524284363,-2.4821975231170654
1687149277827957500,5.99795751953125,7.680817127227783,6.546444416046143,-6.507828712463379
1687149277838012700,6.0080126953125,10.584725379943848,11.246387481689453,-10.334256172180176
1687149277848067800,6.01806787109375,13.107270240783691,14.873610496520996,-14.055221557617188
1687149277858123000,6.028123046875,15.066289901733398,18.305889129638672,-17.53011131286621
1687149277868178200,6.03817822265625,16.39467430114746,21.051074981689453,-20.361581802368164
1687149277878233000,6.048233154296875,16.719579696655273,23.198646545410156,-21.42578125
1687149277888288300,6.058288330078125,15.850323677062988,25.412263870239258,-19.63187599182129
1687149277898343400,6.068343505859375,14.765885353088379,26.88658905029297,-15.761774063110352
1687149277908398600,6.078398681640625,13.83591079711914,26.653295516967773,-11.419759750366211
1687149277918453800,6.088453857421875,12.438284873962402,24.20958137512207,-7.459109306335449
1687149277928509000,6.098509033203125,10.055290222167969,20.16264533996582,-3.481414794921875
1687149277938564000,6.108564208984375,6.659229278564453,14.131121635437012,0.8648608922958374
1687149277948619300,6.118619384765625,3.3079099655151367,5.713408470153809,5.00554084777832
1687149277958674400,6.12867431640625,0.9472857117652893,-3.5629074573516846,7.62502384185791
1687149277968729600,6.1387294921875,0.5712476372718811,-9.922531127929688,8.147003173828125
1687149277978784800,6.14878466796875,1.2412984371185303,-12.471707344055176,7.34699010848999
1687149277988840000,6.15883984375,1.8101491928100586,-11.909248352050781,6.540585517883301
1687149277998895000,6.16889501953125,2.0988357067108154,-9.111865997314453,5.696897029876709
1687149278008950300,6.1789501953125,2.0136146545410156,-4.932836532592773,4.639090061187744
1687149278019005400,6.18900537109375,1.6780565977096558,-0.4619249403476715,3.443864107131958
1687149278029060600,6.199060546875,1.316932201385498,2.8126955032348633,2.2156152725219727
1687149278039115800,6.20911572265625,1.036767840385437,4.412721633911133,1.1088062524795532
1687149278049171000,6.2191708984375,0.7843003273010254,4.574641704559326,0.31625014543533325
1687149278059226000,6.22922607421875,0.5052012801170349,3.5615758895874023,-0.04061317816376686
1687149278069281300,6.23928125,0.15579481422901154,1.8560887575149536,0.02649843320250511
1687149278079336400,6.24933642578125,-0.20746009051799774,0.03555317223072052,0.34075120091438293
1687149278089391600,6.2593916015625,-0.5355613231658936,-1.400422215461731,0.6986798048019409
1687149278099446500,6.269446533203125,-0.8178561329841614,-2.246241569519043,0.9649956822395325
1687149278109501700,6.279501708984375,-1.041561484336853,-2.554102659225464,1.1024147272109985
1687149278119556900,6.289556884765625,-1.1821763515472412,-2.4358584880828857,1.1162631511688232
1687149278129612000,6.299612060546875,-1.225852131843567,-2.1098878383636475,1.0363683700561523
1687149278139667200,6.309667236328125,-1.1651321649551392,-1.7498286962509155,0.9032104015350342
1687149278149722400,6.319722412109375,-1.0394309759140015,-1.471794843673706,0.7040061354637146
1687149278159777500,6.329777587890625,-0.8892288208007812,-1.2949610948562622,0.4398207366466522
1687149278169832700,6.339832763671875,-0.7443529963493347,-1.2076095342636108,0.13302479684352875
1687149278179887900,6.349887939453125,-0.6250434517860413,-1.1660642623901367,-0.19188061356544495
1687149278189943000,6.359943115234375,-0.5291697382926941,-1.1767168045043945,-0.5008070468902588
1687149278199998200,6.369998291015625,-0.469514936208725,-1.296026349067688,-0.7532745599746704
1687149278210053400,6.380053466796875,-0.4737760126590729,-1.600691795349121,-0.9343693852424622
1687149278220108500,6.390108642578125,-0.571780264377594,-2.023601531982422,-1.069657802581787
1687149278230163700,6.400163818359375,-0.7475487589836121,-2.335723638534546,-1.1090725660324097
1687149278240219000,6.410218994140625,-0.9062730669975281,-2.504035234451294,-0.9801757335662842
1687149278250274000,6.420274169921875,-1.0106688737869263,-2.6798038482666016,-0.6680534482002258
1687149278260329200,6.4303291015625,-1.0266478061676025,-2.915227174758911,-0.19081534445285797
1687149278270384400,6.44038427734375,-0.9169256687164307,-3.2550461292266846,0.39721018075942993
1687149278280439600,6.450439453125,-0.7028076648712158,-3.7120442390441895,0.9852356910705566
1687149278290494700,6.46049462890625,-0.46099284291267395,-4.190347671508789,1.4283853769302368
1687149278300550000,6.4705498046875,-0.2277000993490219,-4.627105712890625,1.6542212963104248
1687149278310605000,6.48060498046875,-0.009321057237684727,-4.982903957366943,1.6744612455368042
1687149278320660000,6.490659912109375,0.0918789878487587,-5.3046135902404785,1.511475920677185
1687149278330715100,6.500715087890625,0.11638005077838898,-5.385573387145996,1.2100063562393188
1687149278340770300,6.510770263671875,0.07803056389093399,-5.32698392868042,0.8339682817459106
1687149278350825500,6.520825439453125,-0.05193160101771355,-5.221522808074951,0.5207807421684265
1687149278360880600,6.530880615234375,-0.26818013191223145,-5.140563011169434,0.3801659643650055
1687149278370935800,6.540935791015625,-0.5824328660964966,-5.273720741271973,0.5399554967880249
1687149278380991000,6.550990966796875,-0.9627320170402527,-5.768002986907959,1.0832399129867554
1687149278391046100,6.561046142578125,-1.339835286140442,-6.4550981521606445,1.8726003170013428
1687149278401101300,6.571101318359375,-1.6700670719146729,-7.055906772613525,2.595914363861084
1687149278411156500,6.581156494140625,-1.8682061433792114,-7.474555492401123,3.0294766426086426
1687149278421211600,6.591211669921875,-1.9161429405212402,-7.458576679229736,3.1083061695098877
1687149278431266800,6.601266845703125,-1.7574186325073242,-6.972816467285156,2.8750133514404297
1687149278441322000,6.611322021484375,-1.4378396272659302,-6.177064418792725,2.421211004257202
1687149278451377200,6.621377197265625,-1.1342394351959229,-5.2950263023376465,1.9120150804519653
1687149278461432300,6.631432373046875,-0.9936246871948242,-4.695282459259033,1.5508906841278076
1687149278471487500,6.641487548828125,-1.0500836372375488,-4.4065961837768555,1.43264639377594
1687149278481542700,6.651542724609375,-1.2908332347869873,-4.219110012054443,1.5434339046478271
1687149278491597800,6.661597900390625,-1.7094818353652954,-4.2233710289001465,1.7948360443115234
1687149278501653000,6.671653076171875,-2.2165472507476807,-4.401269912719727,2.080326795578003
1687149278511708200,6.681708251953125,-2.581932783126831,-4.5898213386535645,2.243312120437622
1687149278521763300,6.691763427734375,-2.675675868988037,-4.556798458099365,2.1879184246063232
1687149278531818200,6.701818359375,-2.5584969520568848,-4.2329583168029785,1.97593092918396
1687149278541873400,6.711873291015625,-2.3912506103515625,-3.733349561691284,1.6947013139724731
1687149278551928600,6.721928466796875,-2.3081600666046143,-3.312570333480835,1.419863224029541
1687149278561983700,6.731983642578125,-2.313486337661743,-3.059037685394287,1.208941102027893
1687149278572039000,6.742038818359375,-2.343313694000244,-2.945054531097412,1.0906968116760254
1687149278582094000,6.752093994140625,-2.402968406677246,-3.0377323627471924,1.1056104898452759
1687149278592149200,6.762149169921875,-2.492450714111328,-3.3104398250579834,1.2526168823242188
1687149278602204400,6.772204345703125,-2.568084239959717,-3.7013916969299316,1.494431734085083
1687149278612259600,6.782259521484375,-2.603238105773926,-4.116844654083252,1.7682044506072998
1687149278622314800,6.792314697265625,-2.5446484088897705,-4.444945812225342,1.9833877086639404
1687149278632370000,6.802369873046875,-2.2772674560546875,-4.417248725891113,1.980191946029663
1687149278642425000,6.812425048828125,-1.6114776134490967,-3.7972652912139893,1.4880400896072388
1687149278652480300,6.822480224609375,-0.3842938542366028,-2.4678163528442383,0.18841850757598877
1687149278662535400,6.832535400390625,1.5544859170913696,-0.0294279083609581,-2.1285300254821777
1687149278672590600,6.842590576171875,4.135619640350342,4.448940277099609,-5.5373735427856445
1687149278682645800,6.852645751953125,6.801974773406982,9.55901050567627,-9.55767822265625
1687149278692701000,6.862700927734375,9.276581764221191,13.907416343688965,-13.396888732910156
1687149278702756000,6.872756103515625,11.399652481079102,17.541030883789062,-16.731163024902344
1687149278712811300,6.882811279296875,13.022048950195312,20.31071662902832,-19.4422607421875
1687149278722866400,6.892866455078125,14.11713981628418,21.412199020385742,-21.127506256103516
1687149278732921600,6.902921630859375,14.643380165100098,21.177841186523438,-21.029502868652344
1687149278742976800,6.912976806640625,14.683860778808594,20.49607276916504,-18.22572898864746
1687149278753031700,6.92303173828125,14.406891822814941,19.358369827270508,-13.377714157104492
1687149278763086800,6.9330869140625,13.42045783996582,16.779367446899414,-7.815972328186035
1687149278773142000,6.94314208984375,10.960763931274414,12.557726860046387,-1.8931066989898682
1687149278783197200,6.953197265625,7.21103572845459,6.772280216217041,3.6590473651885986
1687149278793252400,6.96325244140625,3.1555771827697754,-0.5056007504463196,7.626089096069336
1687149278803307500,6.9733076171875,0.30173593759536743,-7.428749084472656,9.39229679107666
1687149278813362700,6.98336279296875,-0.8540751338005066,-11.958250045776367,9.115327835083008
1687149278823417900,6.99341796875,-0.7347655892372131,-13.448554039001465,7.8668389320373535
1687149278833473000,7.00347314453125,-0.21704746782779694,-12.234153747558594,6.370143413543701
1687149278843528000,7.01352783203125,0.10679268091917038,-9.445293426513672,4.942690372467041
1687149278853583000,7.0235830078125,0.08122635632753372,-5.975729465484619,3.8966012001037598
1687149278863638300,7.03363818359375,-0.31079065799713135,-2.7490460872650146,3.241464138031006
1687149278873693400,7.043693359375,-1.1150647401809692,-0.8390282988548279,3.0337376594543457
1687149278883748400,7.053748291015625,-2.2623536586761475,-0.4938828647136688,3.181809425354004
1687149278893803500,7.063803466796875,-3.4874067306518555,-1.8712687492370605,3.632415771484375
1687149278903858700,7.073858642578125,-4.598476886749268,-4.7591986656188965,4.407927989959717
1687149278913913900,7.083913818359375,-5.403816223144531,-8.316113471984863,5.455081939697266
1687149278923968800,7.09396875,-5.914077281951904,-11.63973617553711,6.604501247406006
1687149278934024000,7.10402392578125,-6.253896713256836,-14.119669914245605,7.6537861824035645
1687149278944079000,7.1140791015625,-6.471210479736328,-15.567363739013672,8.445277214050293
1687149278954134300,7.12413427734375,-6.60117244720459,-16.054189682006836,8.86392593383789
1687149278964189200,7.134189208984375,-6.610759735107422,-15.821961402893066,8.888426780700684
1687149278974244400,7.144244384765625,-6.489319801330566,-15.25737190246582,8.5241060256958
1687149278984299500,7.154299560546875,-6.226199626922607,-14.434988021850586,7.867904186248779
1687149278994354700,7.164354736328125,-5.740439414978027,-13.41446590423584,7.022084712982178
1687149279004409600,7.17440966796875,-4.844552516937256,-12.016839981079102,5.871600151062012
1687149279014464800,7.18446484375,-3.2296130657196045,-9.883116722106934,4.069173812866211
1687149279024520000,7.19452001953125,-0.6048034429550171,-6.509426593780518,1.1056104898452759
1687149279034575000,7.2045751953125,2.8764781951904297,-0.6281060576438904,-2.7644922733306885
1687149279044630000,7.214630126953125,6.670947074890137,5.866806507110596,-6.884932041168213
1687149279054685200,7.224685302734375,10.475003242492676,10.480463027954102,-10.968087196350098
1687149279064740400,7.234740234375,13.753885269165039,13.594228744506836,-14.924476623535156
1687149279074795500,7.24479541015625,16.190143585205078,16.22223472595215,-18.457956314086914
1687149279084850400,7.254850341796875,17.660207748413086,18.03531265258789,-21.069982528686523
1687149279094905600,7.264905517578125,18.055419921875,19.431873321533203,-21.6558780670166
1687149279104960800,7.274960693359375,17.309734344482422,21.471853256225586,-19.289926528930664
1687149279115016000,7.285015869140625,16.35312843322754,22.999441146850586,-14.167074203491211
1687149279125070800,7.29507080078125,15.292125701904297,22.152557373046875,-8.111050605773926
1687149279135126000,7.3051259765625,13.161598205566406,18.843847274780273,-2.7059028148651123
1687149279145181200,7.31518115234375,9.704817771911621,13.892502784729004,2.095240354537964
1687149279155236400,7.325236328125,5.8038225173950195,6.846848964691162,5.918471813201904
1687149279165291300,7.335291259765625,3.0660951137542725,-1.7200013399124146,8.10013198852539
1687149279175346400,7.345346435546875,2.1542294025421143,-8.277764320373535,8.437820434570312
1687149279185401600,7.355401611328125,2.5100274085998535,-11.223217964172363,7.701723098754883
1687149279195456800,7.365456787109375,3.004309892654419,-11.2860689163208,6.747246742248535
1687149279205511700,7.37551171875,3.2940614223480225,-9.108670234680176,6.028193950653076
1687149279215566800,7.38556689453125,3.311105728149414,-5.752024173736572,5.445494651794434
1687149279225622000,7.3956220703125,3.1310760974884033,-2.226001501083374,4.788227081298828
1687149279235677200,7.40567724609375,2.8860654830932617,0.7854987978935242,4.005258083343506
1687149279245732400,7.415732421875,2.6431853771209717,2.958636522293091,3.122154474258423
1687149279255787500,7.42578759765625,2.3310632705688477,4.08781623840332,2.252899408340454
1687149279265842700,7.4358427734375,1.925197720527649,4.2007341384887695,1.5391727685928345
1687149279275897900,7.44589794921875,1.4341111183166504,3.5349442958831787,1.067260980606079
1687149279285953000,7.455953125,0.8705866932868958,2.4100258350372314,0.8478167057037354
1687149279296008200,7.46600830078125,0.3315632939338684,1.1657979488372803,0.8041408658027649
1687149279306063400,7.4760634765625,-0.0966726765036583,0.08455529808998108,0.8222503662109375
1687149279316118500,7.486118408203125,-0.38535910844802856,-0.6664555668830872,0.7966840267181396
1687149279326173700,7.496173583984375,-0.5078644156455994,-1.010535717010498,0.6624608039855957
1687149279336228900,7.506228759765625,-0.45992758870124817,-1.0765820741653442,0.4589954614639282
1687149279346284000,7.516283935546875,-0.35340121388435364,-1.0190578699111938,0.24700801074504852
1687149279356339200,7.526339111328125,-0.251135915517807,-0.859268307685852,0.10319741815328598
1687149279366394400,7.536394287109375,-0.13289164006710052,-0.6685860753059387,0.02649843320250511
1687149279376449500,7.546449462890625,-0.04127896577119827,-0.5599291920661926,-0.03741738572716713
1687149279386504400,7.55650439453125,-0.01784316636621952,-0.5311670899391174,-0.14394375681877136
1687149279396559600,7.5665595703125,-0.06897582113742828,-0.5311670899391174,-0.32397329807281494
1687149279406614800,7.57661474609375,-0.17337165772914886,-0.5194491744041443,-0.554070234298706
1687149279416670000,7.586669921875,-0.318247526884079,-0.5450155138969421,-0.792689323425293
1687149279426725000,7.59672509765625,-0.5057339072227478,-0.6515418887138367,-1.018525242805481
1687149279436780300,7.6067802734375,-0.7305045127868652,-0.7399587631225586,-1.1953589916229248
1687149279446835500,7.61683544921875,-0.9201214909553528,-0.7708513736724854,-1.2859063148498535
1687149279456890600,7.626890625,-1.0149298906326294,-0.821984052658081,-1.2976242303848267
1687149279466945800,7.63694580078125,-1.0170605182647705,-0.8198535442352295,-1.2401000261306763
1687149279477001000,7.6470009765625,-0.9318393468856812,-0.7623292803764343,-1.1229209899902344
1687149279487056100,7.65705615234375,-0.7858982682228088,-0.7474156022071838,-0.9610009789466858
1687149279497111300,7.667111328125,-0.6079992055892944,-0.8092008829116821,-0.779906153678894
1687149279507166500,7.67716650390625,-0.4269044101238251,-0.9487504363059998,-0.5988113284111023
1687149279517221600,7.6872216796875,-0.2649843394756317,-1.150085210800171,-0.40386807918548584
1687149279527276800,7.69727685546875,-0.15100112557411194,-1.3887042999267578,-0.20999009907245636
1687149279537332000,7.70733203125,-0.1009337306022644,-1.61347496509552,-0.03635212033987045
1687149279547387100,7.71738720703125,-0.1243695318698883,-1.7860476970672607,0.10639320313930511
1687149279557442300,7.7274423828125,-0.2277000993490219,-1.8552898168563843,0.20972378551959991
1687149279567497500,7.73749755859375,-0.3960117697715759,-1.831853985786438,0.2619217038154602
1687149279577552600,7.747552734375,-0.6239781975746155,-1.839310884475708,0.25553011894226074
1687149279587607800,7.75760791015625,-0.8551403880119324,-1.9383803606033325,0.25979116559028625
1687149279597662700,7.767662841796875,-1.0010814666748047,-2.1844563484191895,0.30772802233695984
1687149279607718000,7.7777177734375,-1.0330394506454468,-2.648911237716675,0.3929491341114044
1687149279617773000,7.78777294921875,-1.0064078569412231,-3.3509199619293213,0.5293028950691223
1687149279627828200,7.797828125,-0.9627320170402527,-4.2233710289001465,0.6997450590133667
1687149279637883400,7.80788330078125,-0.9637972712516785,-5.1363019943237305,0.9319725036621094
1687149279647938600,7.8179384765625,-1.074584722518921,-5.8841166496276855,1.2749874591827393
1687149279657993700,7.82799365234375,-1.3377047777175903,-6.531797409057617,1.762878179550171
1687149279668049000,7.838048828125,-1.7297217845916748,-7.229544639587402,2.4286680221557617
1687149279678104000,7.84810400390625,-2.1473052501678467,-8.059385299682617,3.345860004425049
1687149279688159200,7.8581591796875,-2.611760139465332,-9.249284744262695,4.46225643157959
1687149279698214400,7.86821435546875,-3.0463876724243164,-10.743849754333496,5.587174415588379
1687149279708269600,7.87826953125,-3.444796323776245,-12.254393577575684,6.513954162597656
1687149279718324500,7.888324462890625,-3.777158498764038,-13.441097259521484,7.095587730407715
1687149279728379600,7.898379638671875,-3.9976680278778076,-14.10582160949707,7.3107709884643555
1687149279738434800,7.908434814453125,-4.1223039627075195,-14.155889511108398,7.228745937347412
1687149279748490000,7.918489990234375,-4.2618536949157715,-13.699955940246582,6.952842712402344
1687149279758545000,7.928544921875,-4.48768949508667,-13.040557861328125,6.569347858428955
1687149279768600000,7.93860009765625,-4.683697700500488,-12.243741035461426,6.081457138061523
1687149279778655200,7.9486552734375,-4.7081990242004395,-11.230674743652344,5.492366313934326
1687149279788710400,7.95871044921875,-4.542017936706543,-10.030122756958008,4.859599590301514
1687149279798765300,7.968765380859375,-4.195806980133057,-8.791221618652344,4.225767612457275
1687149279808820500,7.978820556640625,-3.679154396057129,-7.622627258300781,3.5716958045959473
1687149279818875600,7.988875732421875,-3.0549097061157227,-6.4902520179748535,2.8611650466918945
1687149279828930800,7.998930908203125,-2.3752715587615967,-5.3568115234375,2.0909793376922607
1687149279838985700,8.00898583984375,-1.6721975803375244,-4.256393909454346,1.268595814704895
1687149279849041000,8.019041015625,-0.9371656775474548,-3.1772818565368652,0.4270375669002533
1687149279859096000,8.029095947265626,-0.19148114323616028,-2.0853867530822754,-0.36125752329826355
1687149279869151200,8.039151123046874,0.6266413331031799,-0.9828388690948486,-1.0717884302139282
1687149279879206100,8.0492060546875,1.6013575792312622,0.22303956747055054,-1.7993634939193726
1687149279889261300,8.05926123046875,2.8328022956848145,1.7261265516281128,-2.741056442260742
1687149279899316500,8.06931640625,4.416849136352539,3.746931791305542,-4.1578569412231445
1687149279909371600,8.07937158203125,6.377999782562256,6.381328582763672,-6.1232686042785645
1687149279919426600,8.089426513671874,8.664055824279785,9.471658706665039,-8.480696678161621
1687149279929481700,8.099481689453125,11.077942848205566,12.826173782348633,-11.1321382522583
1687149279939537000,8.109536865234375,13.399152755737305,16.016637802124023,-13.712206840515137
1687149279949592000,8.119592041015625,15.464698791503906,18.712820053100586,-15.885344505310059
1687149279959647000,8.12964697265625,16.98163414001465,20.292606353759766,-16.967653274536133
1687149279969702100,8.1397021484375,17.713470458984375,20.601533889770508,-16.13248634338379
1687149279979757300,8.14975732421875,17.34701919555664,20.60579490661621,-13.232837677001953
1687149279989812500,8.1598125,15.69692611694336,20.319238662719727,-8.85353946685791
1687149279999867400,8.169867431640625,12.72484016418457,19.083532333374023,-4.350669860839844
1687149280009922600,8.179922607421876,8.779104232788086,16.57483673095703,-0.6297039985656738
1687149280019977700,8.189977783203124,4.975047588348389,12.357458114624023,2.010019302368164
1687149280030033000,8.200032958984375,2.2724735736846924,6.133122444152832,3.766638994216919
1687149280040087800,8.210087890625,1.0133320093154907,-1.3056137561798096,4.853208065032959
1687149280050143000,8.22014306640625,1.0218541622161865,-7.197587013244629,5.603153705596924
1687149280060198100,8.2301982421875,1.3744564056396484,-10.457293510437012,6.385056972503662
1687149280070253300,8.24025341796875,1.2583426237106323,-11.37874698638916,7.222354412078857
1687149280080308200,8.25030810546875,0.668186604976654,-10.490316390991211,8.04047679901123
1687149280090363400,8.26036328125,-0.33316120505332947,-9.05540657043457,8.621045112609863
1687149280100418600,8.27041845703125,-1.47299325466156,-8.400269508361816,8.88949203491211
1687149280110473700,8.2804736328125,-2.3518357276916504,-9.046884536743164,8.968321800231934
1687149280120528600,8.290528564453124,-3.1145646572113037,-10.673542022705078,9.130241394042969
1687149280130583800,8.300583740234375,-3.7004594802856445,-12.89355182647705,9.516932487487793
1687149280140639000,8.310638916015625,-4.104194641113281,-15.030470848083496,9.960082054138184
1687149280150694100,8.320694091796875,-4.453600883483887,-16.735958099365234,10.380861282348633
1687149280160749000,8.3307490234375,-4.8168559074401855,-17.88111686706543,10.751572608947754
1687149280170804200,8.34080419921875,-5.108737945556641,-18.47020721435547,10.897514343261719
1687149280180859400,8.350859375,-5.245091915130615,-18.509620666503906,10.647176742553711
1687149280190914600,8.36091455078125,-5.1747846603393555,-17.904552459716797,9.943037986755371
1687149280200969500,8.370969482421875,-4.9212517738342285,-16.57084083557129,8.647677421569824
1687149280211024600,8.381024658203126,-4.36731481552124,-14.330592155456543,6.78346586227417
1687149280221079800,8.391079833984374,-3.4969942569732666,-11.222152709960938,4.361056327819824
1687149280231135000,8.401135009765625,-2.3209431171417236,-7.622627258300781,1.6094802618026733
1687149280241190000,8.41118994140625,-0.7827024459838867,-3.481947422027588,-1.3306474685668945
1687149280251245000,8.4212451171875,1.2775174379348755,1.0305094718933105,-4.315515995025635
1687149280261300200,8.43130029296875,3.9577207565307617,5.090229034423828,-7.301450252532959
1687149280271355400,8.44135546875,7.04059362411499,7.719299793243408,-10.262883186340332
1687149280281410300,8.451410400390625,10.011613845825195,9.137166023254395,-13.041090965270996
1687149280291465500,8.461465576171875,12.605530738830566,10.03518295288086,-15.452847480773926
1687149280301520600,8.471520751953125,14.94804573059082,10.94704818725586,-17.47258758544922
1687149280311575800,8.481575927734376,17.114791870117188,12.28075885772705,-18.97673988342285
1687149280321630700,8.491630615234374,18.893781661987305,13.983050346374512,-19.6680965423584
1687149280331686000,8.501685791015625,20.02296257019043,16.11783790588379,-19.031068801879883
1687149280341741000,8.511740966796875,19.950523376464844,19.392457962036133,-16.819580078125
1687149280351796200,8.521796142578125,18.555028915405273,22.620206832885742,-13.525785446166992
1687149280361851100,8.53185107421875,16.317974090576172,24.136077880859375,-9.238099098205566
1687149280371906300,8.54190625,13.173316955566406,23.029268264770508,-4.63722562789917
1687149280381961500,8.55196142578125,9.53437614440918,19.542661666870117,0.03928159549832344
1687149280392016600,8.5620166015625,5.857085704803467,13.423786163330078,4.0713043212890625
1687149280402071600,8.572071533203125,3.068225622177124,4.512856483459473,6.788792133331299
1687149280412126700,8.582126708984376,2.0434420108795166,-4.916857719421387,7.649525165557861
1687149280422182000,8.592181884765624,2.7230801582336426,-10.787525177001953,7.243659496307373
1687149280432237000,8.602237060546875,3.529484748840332,-12.964923858642578,6.85377311706543
1687149280442292000,8.6122919921875,3.7840826511383057,-12.221370697021484,6.880404472351074
1687149280452347100,8.62234716796875,3.5870089530944824,-9.69136905670166,6.995453357696533
1687149280462402300,8.63240234375,3.0554423332214355,-6.425271034240723,6.697179317474365
1687149280472457500,8.64245751953125,2.4098925590515137,-3.038797616958618,5.744833469390869
1687149280482512400,8.652512451171875,1.832519769668579,-0.19667430222034454,4.342946529388428
1687149280492567600,8.662567626953125,1.3978922367095947,1.7293223142623901,2.8419902324676514
1687149280502622700,8.672622802734375,1.016527771949768,2.744518518447876,1.5679348707199097
1687149280512678000,8.682677978515626,0.6149234175682068,2.958636522293091,0.7604650855064392
1687149280522732800,8.69273291015625,0.1760348230600357,2.5027036666870117,0.4323638677597046
1687149280532788000,8.7027880859375,-0.23409168422222137,1.6962991952896118,0.4398207366466522
1687149280542843100,8.712843017578125,-0.5270391702651978,0.8728504180908203,0.6145239472389221
1687149280552898300,8.722898193359375,-0.6761760711669922,0.19747324287891388,0.7679219245910645
1687149280562953200,8.732953125,-0.6974813938140869,-0.19028271734714508,0.7892271876335144
1687149280573008400,8.74300830078125,-0.601607620716095,-0.3213101327419281,0.6550039649009705
1687149280583063600,8.7530634765625,-0.44288337230682373,-0.3074617087841034,0.39614492654800415
1687149280593118700,8.76311865234375,-0.2575274705886841,-0.2701774835586548,0.08402267098426819
1687149280603173600,8.773173583984375,-0.09986846894025803,-0.2914827764034271,-0.23875221610069275
1687149280613228800,8.783228759765626,-0.009321057237684727,-0.2733732759952545,-0.5572660565376282
1687149280623284000,8.793283935546874,0.007723161485046148,-0.17430377006530762,-0.8321040868759155
1687149280633339100,8.803339111328125,-0.029561065137386322,-0.11358373612165451,-1.0270472764968872
1687149280643394000,8.81339404296875,-0.08282424509525299,-0.14021532237529755,-1.1229209899902344
1687149280653449200,8.82344921875,-0.1712411344051361,-0.23502379655838013,-1.1655316352844238
1687149280663504400,8.83350439453125,-0.32463908195495605,-0.33835434913635254,-1.194293737411499
1687149280673559600,8.8435595703125,-0.4929507374763489,-0.4150533378124237,-1.2155989408493042
1687149280683614500,8.853614501953125,-0.6143907904624939,-0.4800344407558441,-1.207076907157898
1687149280693669600,8.863669677734375,-0.6719150543212891,-0.5482112765312195,-1.1665968894958496
1687149280703724800,8.873724853515625,-0.6697844862937927,-0.6355628967285156,-1.1101378202438354
1687149280713780000,8.883780029296876,-0.617586612701416,-0.7026745080947876,-1.0313084125518799
1687149280723835000,8.8938349609375,-0.5217128396034241,-0.7335671782493591,-0.9354346394538879
1687149280733890000,8.90389013671875,-0.38003280758857727,-0.6994787454605103,-0.8139945864677429
1687149280743945200,8.9139453125,-0.23089589178562164,-0.6217144727706909,-0.6563355326652527
1687149280754000400,8.92400048828125,-0.11691268533468246,-0.5439502596855164,-0.4901544451713562
1687149280764055300,8.93405517578125,-0.05512739345431328,-0.4534028470516205,-0.359127014875412
1687149280774110500,8.9441103515625,-0.018908429890871048,-0.35646384954452515,-0.27603644132614136
1687149280784165600,8.95416552734375,0.005592633970081806,-0.32876700162887573,-0.2227732539176941
1687149280794220800,8.964220703125,0.001331579522229731,-0.3532680571079254,-0.18868482112884521
1687149280804275700,8.974275634765625,-0.023169483989477158,-0.4065312445163727,-0.16311849653720856
1687149280814331000,8.984330810546876,-0.048735812306404114,-0.4810996949672699,-0.12263847887516022
1687149280824386000,8.994385986328124,-0.05938844755291939,-0.5844302773475647,-0.07470161467790604
1687149280834441200,9.004441162109375,-0.05299686640501022,-0.6930871605873108,-0.07363634556531906
1687149280844496100,9.01449609375,-0.03488738462328911,-0.7559376955032349,-0.15033532679080963
1687149280854551300,9.02455126953125,-0.024234747514128685,-0.804939866065979,-0.2834932804107666
1687149280864606500,9.0346064453125,-0.028495801612734795,-0.8709861636161804,-0.4581965208053589
1687149280874661600,9.04466162109375,-0.08069372177124023,-0.9956220388412476,-0.6297039985656738
1687149280884716500,9.054716552734375,-0.18935060501098633,-1.144758939743042,-0.6829671263694763
1687149280894771700,9.064771728515625,-0.3310306668281555,-1.2747211456298828,-0.5221123695373535
1687149280904827000,9.074826904296875,-0.48549389839172363,-1.484578013420105,-0.180162712931633
1687149280914882000,9.084882080078126,-0.6335655450820923,-1.8212013244628906,0.2438122183084488
1687149280924937000,9.09493701171875,-0.7486140131950378,-2.3389194011688232,0.6677871346473694
1687149280934992100,9.1049921875,-0.9020119905471802,-3.16343355178833,1.113067388534546
1687149280945047300,9.11504736328125,-1.2013510465621948,-4.281960487365723,1.6851139068603516
1687149280955102500,9.1251025390625,-1.6295870542526245,-5.698760986328125,2.442516326904297
1687149280965157400,9.135157470703126,-2.1526315212249756,-7.3488545417785645,3.365034580230713
1687149280975212500,9.145212646484374,-2.7481138706207275,-9.166193962097168,4.4047322273254395
1687149280985267700,9.155267822265625,-3.346791982650757,-10.914291381835938,5.335772514343262
1687149280995323000,9.165322998046875,-3.9092512130737305,-12.301264762878418,6.0218024253845215
1687149281005377800,9.175377685546875,-4.371575832366943,-13.28982925415039,6.466017246246338
1687149281015433000,9.185432861328126,-4.7625274658203125,-13.794764518737793,6.778139591217041
1687149281025488100,9.195488037109374,-5.116194725036621,-13.92579174041748,6.983735084533691
1687149281035543300,9.205543212890625,-5.405946731567383,-13.730849266052246,7.055108070373535
1687149281045598200,9.21559814453125,-5.63710880279541,-13.246153831481934,6.984800338745117
1687149281055653400,9.2256533203125,-5.775593280792236,-12.559059143066406,6.798379421234131
1687149281065708500,9.23570849609375,-5.75748348236084,-11.751588821411133,6.516084671020508
1687149281075763700,9.245763671875,-5.552953243255615,-10.919617652893066,6.128328800201416
1687149281085818600,9.255818603515625,-5.105542182922363,-10.056754112243652,5.6617431640625
1687149281095873800,9.265873779296875,-4.463188171386719,-9.159802436828613,5.089696407318115
1687149281105929000,9.275928955078125,-3.7111122608184814,-8.159520149230957,4.350403785705566
1687149281115984100,9.285984130859376,-2.888728618621826,-7.046319484710693,3.4470598697662354
1687149281126039000,9.2960390625,-1.9811240434646606,-5.877725124359131,2.475539445877075
1687149281136094200,9.30609423828125,-0.9957551956176758,-4.761329174041748,1.5221285820007324
1687149281146149400,9.3161494140625,0.015180006623268127,-3.5884737968444824,0.6113281846046448
1687149281156204500,9.32620458984375,1.1251847743988037,-2.2291972637176514,-0.23662169277668
1687149281166259500,9.336259521484376,2.5100274085998535,-0.5141228437423706,-1.2432957887649536
1687149281176314600,9.346314697265624,4.302865982055664,1.8603497743606567,-2.736795425415039
1687149281186369800,9.356369873046875,6.536724090576172,4.7866291999816895,-4.860930919647217
1687149281196425000,9.366425048828125,9.111466407775879,7.912112712860107,-7.446325778961182
1687149281206480000,9.37647998046875,11.87369441986084,11.373153686523438,-10.363018035888672
1687149281216535000,9.38653515625,14.616748809814453,15.263497352600098,-13.456543922424316
1687149281226590200,9.396590087890624,17.032766342163086,19.02387809753418,-16.24327278137207
1687149281236645400,9.406645263671875,18.61894416809082,21.66466522216797,-18.027589797973633
1687149281246700300,9.4167001953125,19.265560150146484,22.956830978393555,-18.079788208007812
1687149281256755500,9.42675537109375,18.8309326171875,23.157100677490234,-15.676552772521973
1687149281266810600,9.436810546875,17.25114631652832,22.672405242919922,-11.246121406555176
1687149281276865800,9.44686572265625,14.482525825500488,21.271583557128906,-6.17440128326416
1687149281286920700,9.456920654296875,10.515483856201172,18.190841674804688,-1.601224422454834
1687149281296976000,9.466975830078125,5.966807842254639,13.081836700439453,1.8917750120162964
1687149281307031000,9.477031005859375,2.1531641483306885,6.25136661529541,4.279030799865723
1687149281317086200,9.487086181640626,0.006657897960394621,-1.7690033912658691,5.501953601837158
1687149281327141000,9.49714111328125,-0.34381383657455444,-8.161650657653809,5.974930763244629
1687149281337196300,9.5071962890625,0.10040109604597092,-11.749458312988281,6.45536470413208
1687149281347251500,9.51725146484375,0.30599698424339294,-12.647476196289062,7.188265800476074
1687149281357306600,9.527306640625,0.015180006623268127,-11.275416374206543,7.988278865814209
1687149281367361500,9.537361572265626,-0.75180983543396,-8.977642059326172,8.502800941467285
1687149281377416700,9.547416748046874,-1.607216477394104,-7.264698505401611,8.470843315124512
1687149281387472000,9.557471923828125,-2.393381118774414,-6.8226141929626465,7.9904093742370605
1687149281397527000,9.567527099609375,-3.092194080352783,-7.623692512512207,7.450320720672607
1687149281407582000,9.57758203125,-3.713242769241333,-9.504947662353516,7.148850917816162
1687149281417637000,9.58763720703125,-4.416316509246826,-11.908183097839355,7.156308174133301
1687149281427692300,9.5976923828125,-5.09382438659668,-14.047232627868652,7.403449058532715
1687149281437747500,9.60774755859375,-5.653087615966797,-15.54605770111084,7.677221775054932
1687149281447802400,9.61780224609375,-6.093041896820068,-16.150062561035156,7.821032524108887
1687149281457857500,9.627857421875,-6.341248035430908,-15.967902183532715,7.6825480461120605
1687149281467912700,9.63791259765625,-6.339117527008057,-15.493860244750977,7.297987937927246
1687149281477968000,9.6479677734375,-6.099433422088623,-14.928205490112305,6.702505588531494
1687149281488022800,9.658022705078125,-5.6658711433410645,-14.045101165771484,5.913145542144775
1687149281498078000,9.668077880859375,-5.1044769287109375,-12.595277786254883,4.907536506652832
1687149281508133000,9.678133056640625,-4.144674301147461,-10.168607711791992,3.46836519241333
1687149281518188300,9.688188232421876,-2.3816630840301514,-6.219675064086914,1.0480862855911255
1687149281528243200,9.6982431640625,0.3177148699760437,-0.6536723971366882,-2.3266689777374268
1687149281538298400,9.70829833984375,3.7393417358398438,4.948549270629883,-6.140312671661377
1687149281548353500,9.718353515625,7.371890544891357,8.337152481079102,-9.914542198181152
1687149281558408700,9.72840869140625,10.490983009338379,9.623991012573242,-13.444825172424316
1687149281568463600,9.738463623046876,12.97730827331543,10.353696823120117,-16.609724044799805
1687149281578518800,9.748518798828124,15.00130844116211,11.59046745300293,-19.41775894165039
1687149281588574000,9.758573974609375,16.60879135131836,13.417394638061523,-21.665464401245117
1687149281598629000,9.768629150390625,17.795495986938477,14.669079780578613,-22.822341918945312
1687149281608684000,9.77868408203125,18.28658103942871,16.486419677734375,-21.876386642456055
1687149281618739200,9.7887392578125,17.73370933532715,19.369022369384766,-17.95515251159668
1687149281628794400,9.79879443359375,16.875106811523438,21.156536102294922,-11.874627113342285
1687149281638849500,9.808849609375,15.37628173828125,20.4172420501709,-6.190380096435547
1687149281648904400,9.818904541015625,12.360520362854004,17.611337661743164,-1.528786540031433
1687149281658959600,9.828959716796875,8.384956359863281,12.617382049560547,2.6236112117767334
1687149281669014800,9.839014892578126,4.545746326446533,5.485442161560059,6.072934627532959
1687149281679070000,9.849070068359374,2.3459768295288086,-2.693652391433716,7.935015678405762
1687149281689124900,9.859124755859375,2.1148147583007812,-8.605865478515625,8.144872665405273
1687149281699180000,9.869179931640625,2.8019096851348877,-11.205108642578125,7.712375640869141
1687149281709235200,9.879235107421875,3.271690845489502,-11.016556739807129,7.491866111755371
1687149281719290400,9.889290283203126,3.376086711883545,-8.818918228149414,7.479083061218262
1687149281729345300,9.89934521484375,3.1640992164611816,-5.619931697845459,7.230876445770264
1687149281739400400,9.909400390625,2.745450735092163,-2.196174144744873,6.459625720977783
1687149281749455600,9.91945556640625,2.2969746589660645,0.706669270992279,5.188766002655029
1687149281759510800,9.9295107421875,1.949698805809021,2.774346113204956,3.666504383087158
1687149281769565700,9.939565673828126,1.5981618165969849,3.826826572418213,2.244377374649048
1687149281779620900,9.949620849609374,1.1528816223144531,3.886481285095215,1.2302463054656982
1687149281789676000,9.959676025390625,0.6585992574691772,3.2526493072509766,0.7050713896751404
1687149281799731200,9.969731201171875,0.17923060059547424,2.238518476486206,0.527172327041626
1687149281809786000,9.9797861328125,-0.20106850564479828,1.2105389833450317,0.5303681492805481
1687149281819841300,9.98984130859375,-0.3970770239830017,0.47550705075263977,0.5580649971961975
1687149281829896400,9.999896484375,-0.39920756220817566,0.06751108169555664,0.5303681492805481
1687149281839951600,10.00995166015625,-0.2468748539686203,-0.08269108831882477,0.44408178329467773
1687149281850006500,10.020006591796875,-0.03808317333459854,-0.07843003422021866,0.32051119208335876
1687149281860061700,10.030061767578125,0.17283903062343597,0.0035952648613601923,0.16924376785755157
1687149281870116900,10.040116943359376,0.3518033027648926,0.06218476593494415,-0.0022636852227151394
1687149281880172000,10.050172119140624,0.4764391779899597,0.06751108169555664,-0.17696692049503326
1687149281890227000,10.06022705078125,0.538224458694458,-0.03688475489616394,-0.3271690905094147
1687149281900282000,10.0702822265625,0.47963494062423706,-0.23821958899497986,-0.42730388045310974
1687149281910337300,10.080337158203125,0.26871275901794434,-0.4992091655731201,-0.46565335988998413
1687149281920392400,10.090392333984376,0.0034621069207787514,-0.7719166874885559,-0.42410808801651
1687149281930447400,10.100447265625,-0.22556957602500916,-1.0190578699111938,-0.35167014598846436
1687149281940502500,10.11050244140625,-0.3842938542366028,-1.1703252792358398,-0.3687143921852112
1687149281950557700,10.1205576171875,-0.45140546560287476,-1.0574073791503906,-0.5221123695373535
1687149281960612900,10.13061279296875,-0.39920756220817566,-0.7271755933761597,-0.7522093057632446
1687149281970667800,10.140667724609376,-0.27670222520828247,-0.3021354079246521,-0.9769799113273621
1687149281980723000,10.150722900390624,-0.13608743250370026,0.040879491716623306,-1.0962893962860107
1687149281990778400,10.1607783203125,-0.030626330524683,0.17510271072387695,-1.1133337020874023
1687149282000833300,10.170833251953125,-0.012516847811639309,0.14314480125904083,-1.0877673625946045
1687149282010888200,10.18088818359375,-0.06578002870082855,0.06325002759695053,-1.028112530708313
1687149282020943400,10.190943359375,-0.1531316488981247,-0.031558435410261154,-0.9119988083839417
1687149282030998300,10.200998291015624,-0.2287653684616089,-0.16684691607952118,-0.7511440515518188
1687149282041053200,10.21105322265625,-0.24794010818004608,-0.32237541675567627,-0.5870934128761292
1687149282051108400,10.2211083984375,-0.22237378358840942,-0.4821649491786957,-0.4528702199459076
1687149282061163300,10.231163330078125,-0.16591481864452362,-0.5961481928825378,-0.3495396375656128
1687149282071218200,10.24121826171875,-0.06471476703882217,-0.6195839643478394,-0.2877543270587921
1687149282081273300,10.2512734375,0.05033370852470398,-0.5524723529815674,-0.25366589426994324
1687149282091328300,10.261328369140625,0.13342426717281342,-0.4523375630378723,-0.21957746148109436
1687149282101383200,10.271383056640625,0.16857796907424927,-0.3692470192909241,-0.18761955201625824
1687149282111438300,10.281438232421875,0.15899059176445007,-0.2893522381782532,-0.17270587384700775
1687149282121493200,10.2914931640625,0.12809795141220093,-0.17643429338932037,-0.16737954318523407
1687149282131548200,10.301548095703126,0.09614004194736481,-0.10612688958644867,-0.14820480346679688
1687149282141603300,10.311603271484374,0.05566002428531647,-0.09334372729063034,-0.11837742477655411
1687149282151658200,10.321658203125,0.0141147430986166,-0.13062795996665955,-0.10239847004413605
1687149282161713400,10.33171337890625,-0.023169483989477158,-0.22863221168518066,-0.07789740711450577
1687149282171768600,10.3417685546875,-0.056192658841609955,-0.3777691125869751,-0.04913528636097908
1687149282181823700,10.35182373046875,-0.10412952303886414,-0.5428850054740906,-0.03848264738917351
1687149282191878700,10.361878662109374,-0.1669800728559494,-0.7207840085029602,-0.02889527566730976
1687149282201933800,10.371933837890625,-0.2607232630252838,-0.9594030380249023,0.005193160381168127
1687149282211989000,10.381989013671875,-0.4588623046875,-1.542102336883545,0.11917637288570404
1687149282222044200,10.392044189453125,-0.8231824636459351,-2.6446502208709717,0.40999335050582886
1687149282232099000,10.40209912109375,-1.3526184558868408,-4.234023571014404,0.9351683259010315
1687149282242154200,10.412154296875,-2.1281304359436035,-6.212218284606934,1.7383770942687988
1687149282252209400,10.42220947265625,-2.979276180267334,-8.415183067321777,2.8004448413848877
1687149282262264600,10.4322646484375,-3.6312174797058105,-10.771546363830566,3.9924750328063965
1687149282272319500,10.442319580078125,-4.131891250610352,-13.157736778259277,5.299553394317627
1687149282282374700,10.452374755859376,-4.709264278411865,-15.308504104614258,6.7152886390686035
1687149282292429800,10.462429931640624,-5.305811882019043,-16.921314239501953,8.013845443725586
1687149282302485000,10.472485107421875,-5.816072940826416,-17.72239112854004,8.82983684539795
1687149282312540000,10.482539794921875,-6.1665449142456055,-17.550884246826172,9.020519256591797
1687149282322595000,10.492594970703125,-6.405163764953613,-16.513317108154297,8.664721488952637
1687149282332650200,10.502650146484376,-6.572410583496094,-14.996381759643555,7.950994491577148
1687149282342705400,10.512705322265624,-6.567083835601807,-13.431509971618652,7.100914478302002
1687149282352760300,10.52276025390625,-6.309290409088135,-11.92203140258789,6.282791614532471
1687149282362815500,10.5328154296875,-5.906620502471924,-10.426401138305664,5.605284214019775
1687149282372870700,10.54287060546875,-5.3526835441589355,-9.08310317993164,5.00554084777832
1687149282382925800,10.55292578125,-4.513255596160889,-8.04340648651123,4.391948699951172
1687149282392980700,10.562980712890624,-3.381945848464966,-7.222087860107422,3.6366770267486572
1687149282403036000,10.573035888671875,-1.9427745342254639,-6.108887672424316,2.709897518157959
1687149282413091000,10.583091064453125,-0.0774979293346405,-4.299004554748535,1.4720611572265625
1687149282423146200,10.593146240234375,2.244776725769043,-1.7487634420394897,-0.31012487411499023
1687149282433201200,10.603201171875,4.971851825714111,1.5599454641342163,-2.757035493850708
1687149282443256300,10.61325634765625,7.916240215301514,5.076380729675293,-5.683314800262451
1687149282453311500,10.6233115234375,10.679533958435059,8.045270919799805,-8.63302993774414
1687149282463366700,10.63336669921875,13.04548454284668,10.486854553222656,-11.421890258789062
1687149282473421600,10.643421630859375,14.992786407470703,12.906068801879883,-13.988109588623047
1687149282483476700,10.653476806640626,16.499069213867188,15.589468002319336,-16.21770668029785
1687149282493532000,10.663531982421874,17.421586990356445,18.156753540039062,-17.747425079345703
1687149282503587000,10.673587158203125,17.711339950561523,20.084880828857422,-18.188444137573242
1687149282513642000,10.68364208984375,17.139293670654297,21.672122955322266,-17.19135856628418
1687149282523697200,10.693697265625,15.868433952331543,22.597837448120117,-14.562287330627441
1687149282533752300,10.70375244140625,14.454828262329102,22.175992965698242,-10.56861400604248
1687149282543807500,10.713807373046874,12.471307754516602,20.2691707611084,-6.136051654815674
1687149282553862400,10.7238623046875,9.906152725219727,17.278976440429688,-1.8291908502578735
1687149282563917600,10.73391748046875,6.768951416015625,13.31299877166748,1.8949708938598633
1687149282573972700,10.74397265625,3.728688955307007,7.738474369049072,4.705136299133301
1687149282584028000,10.75402783203125,1.7387765645980835,0.7780419588088989,6.262551784515381
1687149282594082800,10.764082763671874,1.408544898033142,-5.3046135902404785,6.539520263671875
1687149282604138000,10.774137939453125,2.2628862857818604,-8.762458801269531,6.246572971343994
1687149282614193200,10.784193115234375,3.0671603679656982,-10.02692699432373,6.159221172332764
1687149282624248300,10.794248291015625,3.296191930770874,-9.626387596130371,6.49584436416626
1687149282634303200,10.80430322265625,2.973417043685913,-8.52490520477295,7.1126322746276855
1687149282644358400,10.8143583984375,1.9944398403167725,-7.485208034515381,7.75498628616333
1687149282654413600,10.82441357421875,0.529702365398407,-7.1922607421875,8.086282730102539
1687149282664468700,10.83446875,-0.8934898972511292,-8.109452247619629,7.921167373657227
1687149282674523600,10.844523681640625,-1.8895113468170166,-9.843701362609863,7.380013465881348
1687149282684578800,10.854578857421876,-2.3454442024230957,-11.629083633422852,6.6364593505859375
1687149282694634000,10.864634033203124,-2.5808675289154053,-13.337766647338867,6.003692626953125
1687149282704689000,10.87468896484375,-2.908968687057495,-15.360702514648438,5.887578964233398
1687149282714744000,10.884744140625,-3.281810998916626,-17.21426010131836,6.343512058258057
1687149282724799000,10.894799072265625,-3.554518461227417,-18.386051177978516,7.000779628753662
1687149282734854100,10.904854248046876,-3.757983922958374,-18.63212776184082,7.448190212249756
1687149282744909300,10.914909423828124,-3.8783586025238037,-17.793764114379883,7.415166854858398
1687149282754964200,10.924964111328125,-3.7601144313812256,-16.12982177734375,6.736594200134277
1687149282765019400,10.935019287109375,-3.302051067352295,-13.694629669189453,5.279313564300537
1687149282775074300,10.94507421875,-2.373141050338745,-10.31454849243164,3.051847219467163
1687149282785129500,10.95512939453125,-0.9243825078010559,-6.099299907684326,0.16072164475917816
1687149282795184400,10.965184326171874,0.9930920004844666,-1.1415631771087646,-3.263035774230957
1687149282805239600,10.975239501953125,3.4762215614318848,3.484876871109009,-6.992523670196533
1687149282815294500,10.98529443359375,6.36947774887085,7.515834331512451,-11.290862083435059
1687149282825349600,10.995349609375,9.194557189941406,10.991789817810059,-16.077091217041016
1687149282835404500,11.005404541015626,11.521092414855957,14.260018348693848,-20.708858489990234
1687149282845459700,11.015459716796874,13.098748207092285,17.304542541503906,-24.68229103088379
1687149282855515000,11.025514892578125,13.734710693359375,19.524551391601562,-27.38912582397461
1687149282865569800,11.03556982421875,13.86147689819336,20.45985221862793,-27.341190338134766
1687149282875625000,11.045625,14.442045211791992,20.897676467895508,-21.88384437561035
1687149282885679900,11.055679931640626,15.85991096496582,19.915502548217773,-12.515915870666504
1687149282895735000,11.065735107421874,16.453262329101562,16.70586395263672,-4.159987449645996
1687149282905790000,11.0757900390625,14.409022331237793,13.43763542175293,2.783400774002075
1687149282915845000,11.08584521484375,10.020135879516602,8.741952896118164,7.569630146026611
1687149282925900000,11.095900146484375,5.011266708374023,1.2701936960220337,9.80135726928711
1687149282935955200,11.105955078125,2.3406505584716797,-6.390117168426514,9.426384925842285
1687149282946010400,11.11601025390625,2.7678213119506836,-10.404030799865723,6.994388103485107
1687149282956065300,11.126065185546874,3.7499942779541016,-10.786459922790527,4.237485408782959
1687149282966120400,11.136120361328125,4.606466293334961,-8.569646835327148,2.1080236434936523
1687149282976175400,11.14617529296875,5.015527725219727,-5.255611419677734,0.9117324948310852
1687149282986230500,11.15623046875,4.657598972320557,-1.66354238986969,0.7114629745483398
1687149282996285400,11.166285400390626,3.9800913333892822,1.1881684064865112,1.1034799814224243
1687149283006340600,11.176340576171874,3.336672067642212,2.769019603729248,1.5572823286056519
1687149283016395500,11.1863955078125,2.800844430923462,3.146122932434082,1.8129456043243408
1687149283026450700,11.19645068359375,2.3960442543029785,2.6028385162353516,1.8182718753814697
1687149283036505600,11.206505615234375,2.0391809940338135,1.5056170225143433,1.6307854652404785
1687149283046560800,11.216560791015626,1.6578165292739868,0.17403744161128998,1.3996232748031616
1687149283056616000,11.226615966796874,1.2604732513427734,-1.0435588359832764,1.184440016746521
1687149283066670800,11.2366708984375,0.8961530327796936,-1.8893781900405884,1.020389437675476
1687149283076726000,11.24672607421875,0.6021402478218079,-2.2536983489990234,0.8776440620422363
1687149283086781000,11.256781005859375,0.3848264813423157,-2.3580942153930664,0.7444861531257629
1687149283096836000,11.266836181640626,0.14727269113063812,-2.211087942123413,0.5655218362808228
1687149283106891000,11.27689111328125,-0.07856319099664688,-1.7338497638702393,0.3375554084777832
1687149283116946200,11.2869462890625,-0.23196116089820862,-1.12771475315094,0.0978710949420929
1687149283127001000,11.2970009765625,-0.30972540378570557,-0.6653903126716614,-0.114116370677948
1687149283137056300,11.30705615234375,-0.3704454302787781,-0.4619249403476715,-0.31864699721336365
1687149283147111200,11.317111083984376,-0.46525388956069946,-0.4097270369529724,-0.5327649712562561
1687149283157166300,11.327166259765624,-0.5536707639694214,-0.37883439660072327,-0.7298387289047241
1687149283167221500,11.337221435546875,-0.6346307992935181,-0.4022701680660248,-0.8747146129608154
1687149283177276400,11.3472763671875,-0.7283740043640137,-0.54181969165802,-0.9247819781303406
1687149283187331600,11.35733154296875,-0.8263782858848572,-0.759133517742157,-0.8672577738761902
1687149283197386500,11.367386474609376,-0.9201214909553528,-0.9178577661514282,-0.6904240250587463
1687149283207441700,11.377441650390624,-0.9755151867866516,-1.0329062938690186,-0.44115230441093445
1687149283217496600,11.38749658203125,-0.9669930934906006,-1.1756515502929688,-0.2217079997062683
1687149283227551700,11.3975517578125,-0.8945551514625549,-1.303483247756958,-0.07789740711450577
1687149283237606700,11.407606689453125,-0.7816371917724609,-1.3919000625610352,-0.02889527566730976
1687149283247661800,11.417661865234376,-0.6442182064056396,-1.5058833360671997,-0.047004759311676025
1687149283257716700,11.427716796875,-0.5078644156455994,-1.6869781017303467,-0.051265813410282135
1687149283267772000,11.43777197265625,-0.3981422781944275,-1.936249852180481,0.016911059617996216
1687149283277827000,11.4478271484375,-0.33422645926475525,-2.2249362468719482,0.15752586722373962
1687149283287882000,11.457882080078125,-0.3118559420108795,-2.459294319152832,0.3226417303085327
1687149283297937200,11.467937255859376,-0.35766226053237915,-2.612692356109619,0.4866923391819
1687149283307992300,11.477992431640626,-0.47590652108192444,-2.7682206630706787,0.6326334476470947
1687149283318047500,11.488047607421874,-0.6655234694480896,-3.0409281253814697,0.7807050943374634
1687149283328102400,11.498102294921875,-0.9158604145050049,-3.5032527446746826,0.9777788519859314
1687149283338157600,11.508157470703125,-1.2024163007736206,-4.140280246734619,1.2504863739013672
1687149283348212700,11.518212646484375,-1.5422354936599731,-4.9967522621154785,1.6318507194519043
1687149283358268000,11.528267822265626,-1.8735324144363403,-6.047102451324463,2.1261329650878906
1687149283368322800,11.53832275390625,-2.1473052501678467,-7.04205846786499,2.674743890762329
1687149283378378000,11.5483779296875,-2.3795325756073,-7.796265125274658,3.1498513221740723
1687149283388433200,11.55843310546875,-2.553170680999756,-8.352333068847656,3.4822137355804443
1687149283398488300,11.56848828125,-2.705503225326538,-8.813591957092285,3.6995275020599365
1687149283408543200,11.578543212890626,-2.9228172302246094,-9.16299819946289,3.894470691680908
1687149283418598400,11.588598388671874,-3.216829776763916,-9.577385902404785,4.140546798706055
1687149283428653600,11.598653564453125,-3.5236258506774902,-10.151562690734863,4.51232385635376
1687149283438708700,11.608708740234375,-3.8389439582824707,-10.751306533813477,5.00554084777832
1687149283448763600,11.618763671875,-4.154262065887451,-11.267959594726562,5.51154088973999
1687149283458818800,11.62881884765625,-4.449339866638184,-11.574755668640137,5.9174065589904785
1687149283468874000,11.6388740234375,-4.691154956817627,-11.638670921325684,6.150699138641357
1687149283478929200,11.64892919921875,-4.858401298522949,-11.476751327514648,6.186918258666992
1687149283488984000,11.658984130859375,-4.927643299102783,-11.12414836883545,6.061216831207275
1687149283499039200,11.669039306640625,-4.887163162231445,-10.63519287109375,5.830054759979248
1687149283509094400,11.679094482421876,-4.777441024780273,-10.08658218383789,5.560543060302734
1687149283519149600,11.689149658203124,-4.610194683074951,-9.51879596710205,5.252681732177734
1687149283529204500,11.69920458984375,-4.328965187072754,-8.956336975097656,4.902210235595703
1687149283539259600,11.709259765625,-3.892207145690918,-8.398138999938965,4.424972057342529
1687149283549314800,11.719314697265625,-3.331878423690796,-7.779221057891846,3.7591822147369385
1687149283559370000,11.729369873046876,-2.660762310028076,-6.897182464599609,2.937864065170288
1687149283569425000,11.7394248046875,-1.753157615661621,-5.3983564376831055,1.9290592670440674
1687149283579480000,11.74947998046875,-0.448209673166275,-3.125084161758423,0.5293028950691223
1687149283589535200,11.75953515625,1.4255890846252441,0.04727107286453247,-1.4755233526229858
1687149283599590400,11.76959033203125,3.8906090259552,3.583946466445923,-4.005524635314941
1687149283609645300,11.779645263671876,6.614488124847412,6.806368827819824,-6.8029069900512695
1687149283619700500,11.789700439453124,9.171120643615723,9.470593452453613,-9.612007141113281
1687149283629755600,11.799755615234375,11.386869430541992,11.912177085876465,-12.476500511169434
1687149283639810800,11.809810791015625,13.180773735046387,14.62966537475586,-15.305841445922852
1687149283649865700,11.81986572265625,14.569876670837402,17.24382209777832,-17.896562576293945
1687149283659921000,11.8299208984375,15.640466690063477,19.114425659179688,-19.88327980041504
1687149283669976000,11.83997607421875,16.396804809570312,19.996463775634766,-20.699270248413086
1687149283680031200,11.85003125,16.551267623901367,20.97011375427246,-19.51150131225586
1687149283690086100,11.860086181640625,16.172033309936523,21.752017974853516,-16.050460815429688
1687149283700141300,11.870141357421875,15.54352855682373,21.479310989379883,-11.028807640075684
1687149283710196200,11.8801962890625,13.982916831970215,20.088075637817383,-5.68864107131958
1687149283720251400,11.89025146484375,10.904304504394531,17.547422409057617,-0.6115944981575012
1687149283730306600,11.900306640625,6.913827419281006,13.223517417907715,3.6846137046813965
1687149283740361500,11.910361572265625,3.0107014179229736,6.489985466003418,6.900644779205322
1687149283750416600,11.920416748046875,0.58403080701828,-2.316549062728882,8.360055923461914
1687149283760471600,11.930471435546876,0.35286858677864075,-9.392029762268066,7.929689407348633
1687149283770526700,11.940526611328124,1.366999626159668,-12.894617080688477,7.052977561950684
1687149283780581600,11.95058154296875,2.0477030277252197,-13.546558380126953,6.651372909545898
1687149283790636800,11.96063671875,2.000831365585327,-12.269307136535645,6.701440334320068
1687149283800691700,11.970691650390625,1.120923638343811,-10.257023811340332,7.1275458335876465
1687149283810747000,11.980746826171876,-0.3118559420108795,-9.077776908874512,7.660177707672119
1687149283820801800,11.9908017578125,-1.8266608715057373,-9.292960166931152,7.993605136871338
1687149283830857000,12.00085693359375,-2.9068381786346436,-10.618148803710938,8.111849784851074
1687149283840912100,12.010912109375,-3.3840763568878174,-12.473837852478027,8.207723617553711
1687149283850967000,12.020967041015625,-3.5065815448760986,-14.376399040222168,8.335555076599121
1687149283861022200,12.031022216796876,-3.543865919113159,-15.896530151367188,8.638090133666992
1687149283871077000,12.0410771484375,-3.6173689365386963,-16.791351318359375,9.140893936157227
1687149283881132300,12.05113232421875,-3.654653310775757,-17.021448135375977,9.663938522338867
1687149283891187200,12.061187255859375,-3.6621100902557373,-16.83928871154785,9.812009811401367
1687149283901242400,12.071242431640625,-3.609912157058716,-16.537818908691406,9.52758502960205
1687149283911297300,12.08129736328125,-3.345726728439331,-15.818765640258789,8.815988540649414
1687149283921352400,12.0913525390625,-2.6586318016052246,-14.21873950958252,7.548325061798096
1687149283931407400,12.101407470703125,-1.304681658744812,-11.516165733337402,5.3464250564575195
1687149283941462500,12.111462646484375,0.7523424625396729,-7.284938335418701,1.866208791732788
1687149283951517700,12.121517578125,3.296191930770874,-0.8858999013900757,-2.5514395236968994
1687149283961572600,12.131572509765626,5.987048149108887,5.850827217102051,-7.070288181304932
1687149283971627800,12.141627685546876,8.588421821594238,11.469027519226074,-11.214163780212402
1687149283981682700,12.1516826171875,10.929871559143066,15.867501258850098,-14.999045372009277
1687149283991737900,12.16173779296875,12.842019081115723,19.418025970458984,-18.46541404724121
1687149284001792800,12.171792724609375,14.246036529541016,22.018333435058594,-21.404476165771484
1687149284011848000,12.181847900390625,15.050311088562012,23.16562271118164,-23.068416595458984
1687149284021902800,12.19190283203125,15.151511192321777,24.188276290893555,-21.61646270751953
1687149284031958000,12.2019580078125,14.790387153625488,25.128904342651367,-16.3753662109375
1687149284042013000,12.212012939453125,14.489982604980469,24.335281372070312,-9.5225248336792
1687149284052068000,12.222068115234375,13.19249153137207,21.662534713745117,-3.839343309402466
1687149284062123300,12.232123291015625,10.075530052185059,17.855283737182617,0.555934488773346
1687149284072178200,12.24217822265625,5.895435333251953,12.236017227172852,4.092609882354736
1687149284082233300,12.2522333984375,2.3523683547973633,4.164515018463135,6.631133079528809
1687149284092288300,12.262288330078125,0.718254029750824,-4.585560321807861,7.449255466461182
1687149284102343400,12.272343505859375,1.1006836891174316,-9.915074348449707,6.887861728668213
1687149284112398300,12.2823984375,2.027462959289551,-11.723892211914062,6.166677951812744
1687149284122453500,12.29245361328125,2.7134928703308105,-10.900443077087402,5.663873672485352
1687149284132508400,12.30250830078125,3.0202887058258057,-8.316113471984863,5.268661022186279
1687149284142563600,12.3125634765625,2.8317370414733887,-4.618583679199219,4.695549011230469
1687149284152618800,12.32261865234375,2.3651516437530518,-0.864594578742981,3.7400074005126953
1687149284162673700,12.332673583984375,1.8911092281341553,1.9466361999511719,2.46169114112854
1687149284172728800,12.342728759765626,1.4958964586257935,3.5264220237731934,1.1524821519851685
1687149284182783700,12.35278369140625,1.1134668588638306,3.9184391498565674,0.140481635928154
1687149284192839000,12.3628388671875,0.6926876902580261,3.340001106262207,-0.4091944098472595
1687149284202893800,12.372893798828125,0.19307903945446014,2.2204089164733887,-0.5498092174530029
1687149284212949000,12.382948974609375,-0.2426137924194336,1.0123999118804932,-0.4145207107067108
1687149284223004000,12.39300390625,-0.48975494503974915,-0.002796316985040903,-0.1567269116640091
1687149284233059000,12.40305908203125,-0.5771065950393677,-0.7175882458686829,0.05632581561803818
1687149284243114000,12.413114013671875,-0.5611276030540466,-1.07764732837677,0.12237215787172318
1687149284253169200,12.423169189453125,-0.46099284291267395,-1.1362367868423462,0.09361004084348679
1687149284263224300,12.433224365234375,-0.3139864504337311,-1.1128010749816895,0.05419528856873512
1687149284273279200,12.443279296875,-0.2181127369403839,-1.0712558031082153,-0.042743705213069916
1687149284283334400,12.45333447265625,-0.18295903503894806,-0.8677904009819031,-0.2504701018333435
1687149284293389300,12.463389404296874,-0.17443692684173584,-0.5759081840515137,-0.5295692086219788
1687149284303444500,12.473444580078125,-0.19148114323616028,-0.334093302488327,-0.7745798230171204
1687149284313499400,12.48349951171875,-0.21491694450378418,-0.23821958899497986,-0.9290430545806885
1687149284323554600,12.493554443359375,-0.2649843394756317,-0.2829606533050537,-1.0142641067504883
1687149284333609500,12.503609375,-0.36192330718040466,-0.3500722646713257,-1.0494178533554077
1687149284343664600,12.51366455078125,-0.45673179626464844,-0.39800912141799927,-1.0195904970169067
1687149284353719600,12.523719482421875,-0.5206475853919983,-0.46831652522087097,-0.9119988083839417
1687149284363774700,12.533774658203125,-0.5398223400115967,-0.5801692008972168,-0.7404913902282715
1687149284373830000,12.543829833984375,-0.4950812757015228,-0.7186535000801086,-0.5274386405944824
1687149284383884800,12.553884765625,-0.4109254479408264,-0.9594030380249023,-0.34314805269241333
1687149284393940000,12.56393994140625,-0.3278348743915558,-1.224653720855713,-0.21957746148109436
1687149284403995000,12.573994873046875,-0.24580958485603333,-1.4398369789123535,-0.15885743498802185
1687149284414050000,12.584050048828125,-0.17763271927833557,-1.5996265411376953,-0.14820480346679688
1687149284424105200,12.594105224609375,-0.12650005519390106,-1.693369746208191,-0.16951008141040802
1687149284434160000,12.60416015625,-0.08495477586984634,-1.7785907983779907,-0.18229323625564575
1687149284444215300,12.61421533203125,-0.08815056830644608,-1.936249852180481,-0.13116058707237244
1687149284454270500,12.6242705078125,-0.138217955827713,-2.2526330947875977,0.025433169677853584
1687149284464325600,12.63432568359375,-0.21598219871520996,-2.7831344604492188,0.28322696685791016
1687149284474380500,12.644380615234375,-0.3470096290111542,-3.5788862705230713,0.6219807863235474
1687149284484435700,12.654435791015626,-0.5334307551383972,-4.639888763427734,1.0171936750411987
1687149284494491000,12.664490966796874,-0.8199867010116577,-5.9192705154418945,1.501888632774353
1687149284504546000,12.674546142578125,-1.254614233970642,-7.364833354949951,2.0931098461151123
1687149284514601000,12.68460107421875,-1.827726125717163,-8.96805477142334,2.7375943660736084
1687149284524656000,12.69465625,-2.4253389835357666,-10.816287994384766,3.4214937686920166
1687149284534711300,12.704711181640626,-2.908968687057495,-12.724174499511719,4.139481544494629
1687149284544766500,12.714766357421874,-3.2541141510009766,-14.081320762634277,4.8361639976501465
1687149284554821400,12.7248212890625,-3.4916679859161377,-14.695978164672852,5.359208106994629
1687149284564876500,12.73487646484375,-3.6226954460144043,-14.624605178833008,5.492366313934326
1687149284574931700,12.744931640625,-3.717503786087036,-13.951358795166016,5.270791530609131
1687149284584987000,12.75498681640625,-3.867706060409546,-12.852005958557129,4.823380470275879
1687149284595041800,12.765041748046874,-4.150001049041748,-11.557710647583008,4.310988903045654
1687149284605097000,12.775096923828125,-4.513255596160889,-10.303895950317383,3.8721001148223877
1687149284615152000,12.785152099609375,-4.784897804260254,-9.181107521057129,3.5269546508789062
1687149284625207300,12.795207275390625,-4.881836891174316,-8.221304893493652,3.2531819343566895
