time,seconds_elapsed,z,y,x
1687149075389427500,0.120427490234375,-0.1502021700143814,-0.016245270147919655,-0.1597895473241806
1687149075399346400,0.130346435546875,-0.1736379712820053,-0.029028434306383133,-0.13315795361995697
1687149075409306000,0.14030615234375,-0.17683376371860504,-0.027963170781731606,-0.10759162902832031
1687149075419309000,0.15030908203125,-0.1693769246339798,-0.013049479573965073,-0.0894821435213089
1687149075429355000,0.16035498046875,-0.1651158630847931,0.00612526573240757,-0.07882951200008392
1687149075439443200,0.170443115234375,-0.16724638640880585,0.019973693415522575,-0.07243792712688446
1687149075449570300,0.1805703125,-0.16192007064819336,0.021038956940174103,-0.07350318878889084
1687149075459732000,0.19073193359375,-0.15126743912696838,0.018908429890871048,-0.07776424288749695
1687149075469922600,0.200922607421875,-0.13954953849315643,0.013582111336290836,-0.07776424288749695
1687149075480122600,0.21112255859375,-0.13528847694396973,0.01784316636621952,-0.061785291880369186
1687149075490322400,0.221322509765625,-0.1406148076057434,0.030626330524683,-0.025566328316926956
1687149075500522500,0.2315224609375,-0.17150744795799255,0.05938844755291939,0.02024000883102417
1687149075510722600,0.24172265625,-0.23222747445106506,0.08815056830644608,0.054328445345163345
1687149075520890400,0.251890380859375,-0.30786117911338806,0.13715268671512604,0.06072002649307251
1687149075530945000,0.261945068359375,-0.377103328704834,0.21278640627861023,0.03195790946483612
1687149075541000000,0.272,-0.4271707236766815,0.2788327634334564,-0.017044218257069588
1687149075551054600,0.2820546875,-0.4516717791557312,0.29694223403930664,-0.09480846673250198
1687149075561109500,0.292109619140625,-0.45486757159233093,0.30546435713768005,-0.20559588074684143
1687149075571164200,0.3021640625,-0.42930126190185547,0.32890015840530396,-0.3153180480003357
1687149075581219000,0.312218994140625,-0.3941475450992584,0.3928159773349762,-0.40266966819763184
1687149075591273700,0.322273681640625,-0.38882121443748474,0.5036033987998962,-0.4601939022541046
1687149075601328600,0.33232861328125,-0.40799596905708313,0.6314350366592407,-0.48789075016975403
1687149075611383600,0.342383544921875,-0.44528019428253174,0.7464835047721863,-0.4932170510292053
1687149075621438200,0.352438232421875,-0.4889560043811798,0.7890940308570862,-0.4793686270713806
1687149075631493000,0.3624931640625,-0.5550023317337036,0.7219824194908142,-0.43036651611328125
1687149075641547800,0.3725478515625,-0.6764423847198486,0.513190746307373,-0.320644348859787
1687149075651602700,0.382602783203125,-0.8607330322265625,0.23835274577140808,-0.13848426938056946
1687149075661657300,0.3926572265625,-1.0663288831710815,-0.001331579522229731,0.10013478249311447
1687149075671712300,0.402712158203125,-1.2442278861999512,-0.16964323818683624,0.3632549047470093
1687149075681767000,0.412766845703125,-1.3528847694396973,-0.25806012749671936,0.6167876720428467
1687149075691821800,0.42282177734375,-1.3827122449874878,-0.2516685426235199,0.8096003532409668
1687149075701876500,0.43287646484375,-1.3677985668182373,-0.1771000772714615,0.8820382952690125
1687149075711931400,0.442931396484375,-1.3656679391860962,-0.03755054250359535,0.8245140314102173
1687149075721986000,0.452986083984375,-1.428518533706665,0.18402428925037384,0.6817687153816223
1687149075732041000,0.463041015625,-1.5393059253692627,0.47058022022247314,0.50706547498703
1687149075742095600,0.473095703125,-1.667137622833252,0.7613971829414368,0.3568633198738098
1687149075752150500,0.483150634765625,-1.818405032157898,0.8839024901390076,0.26951169967651367
1687149075762205200,0.493205078125,-2.0570240020751953,0.6719150543212891,0.31212225556373596
1687149075772260000,0.503260009765625,-2.4383885860443115,0.14247901737689972,0.5155876278877258
1687149075782315000,0.51331494140625,-2.9092350006103516,-0.5190497040748596,0.8799077868461609
1687149075792369700,0.52336962890625,-3.3917994499206543,-1.0090709924697876,1.366733193397522
1687149075802424600,0.533424560546875,-3.7518584728240967,-1.1379679441452026,1.8780597448349
1687149075812479200,0.543479248046875,-3.9254965782165527,-0.9185235500335693,2.2690114974975586
1687149075822534100,0.5535341796875,-3.9169743061065674,-0.58403080701828,2.465020179748535
1687149075832588800,0.5635888671875,-3.7092480659484863,-0.29640960693359375,2.4788684844970703
1687149075842643700,0.573643798828125,-3.318296194076538,-0.14940322935581207,2.2999041080474854
1687149075852698400,0.583698486328125,-2.848515033721924,-0.13235901296138763,1.9078872203826904
1687149075862753300,0.593753173828125,-2.4149527549743652,-0.15046848356723785,1.3550153970718384
1687149075872808000,0.603807861328125,-2.053828239440918,-0.1430116444826126,0.7776424288749695
1687149075882862800,0.61386279296875,-1.7502281665802002,-0.07696529477834702,0.2822948694229126
1687149075892917500,0.62391748046875,-1.532914400100708,0.0636495053768158,-0.0703074038028717
1687149075902972400,0.633972412109375,-1.4370406866073608,0.23196116089820862,-0.2631201148033142
1687149075913027000,0.644027099609375,-1.461541771888733,0.3502054214477539,-0.34940648078918457
1687149075923082000,0.65408203125,-1.5883080959320068,0.3842938542366028,-0.37816858291625977
1687149075933137000,0.664136962890625,-1.813078761100769,0.3139864504337311,-0.39840859174728394
1687149075943191600,0.674191650390625,-2.1507673263549805,0.10945583879947662,-0.3813643753528595
1687149075953246500,0.68424658203125,-2.6120264530181885,-0.23462431132793427,-0.26418536901474
1687149075963301000,0.694301025390625,-3.130809783935547,-0.6117276549339294,-0.026631591841578484
1687149075973356000,0.70435595703125,-3.706052303314209,-0.8918919563293457,0.33129698038101196
1687149075983410700,0.71441064453125,-4.275968074798584,-0.990961492061615,0.7456845641136169
1687149075993465600,0.724465576171875,-4.758532524108887,-0.9355677962303162,1.1132005453109741
1687149076003520300,0.734520263671875,-5.058937072753906,-0.7832350730895996,1.3709943294525146
1687149076013575200,0.7445751953125,-5.113265514373779,-0.7278413772583008,1.5137395858764648
1687149076023630000,0.754630126953125,-4.982237815856934,-0.8993488550186157,1.5211964845657349
1687149076033685000,0.76468505859375,-4.836297035217285,-1.200818419456482,1.4189311265945435
1687149076043739600,0.77473974609375,-4.788360118865967,-1.475656509399414,1.2676637172698975
1687149076053794600,0.784794677734375,-4.855471611022949,-1.6503597497940063,1.1366362571716309
1687149076063849500,0.794849365234375,-4.9630632400512695,-1.7579513788223267,1.0386320352554321
1687149076073904400,0.804904296875,-5.1718549728393555,-1.8239976167678833,0.9640635848045349
1687149076083959000,0.814958984375,-5.544697284698486,-1.7994966506958008,0.9661940932273865
1687149076094014000,0.825013916015625,-5.976129055023193,-1.820801854133606,1.1408973932266235
1687149076104068900,0.83506884765625,-6.160419464111328,-2.3427810668945312,1.374190092086792
1687149076114123500,0.84512353515625,-5.6629414558410645,-3.099118232727051,1.5073480606079102
1687149076124178400,0.855178466796875,-3.8136439323425293,-3.0224192142486572,1.6192007064819336
1687149076134233300,0.8652333984375,-0.21837905049324036,-1.1496857404708862,1.9632809162139893
1687149076144288300,0.875288330078125,4.771316051483154,1.0628668069839478,2.698312759399414
1687149076154343000,0.885343017578125,10.15622329711914,2.5542359352111816,3.2874035835266113
1687149076164397800,0.895397705078125,15.061762809753418,3.6152384281158447,3.0029780864715576
1687149076174452700,0.90545263671875,19.258901596069336,4.600607395172119,1.5968302488327026
1687149076184507600,0.915507568359375,22.184114456176758,6.313551425933838,-0.8852340579032898
1687149076194562300,0.925562255859375,23.519956588745117,8.709329605102539,-4.525239944458008
1687149076204617200,0.9356171875,22.903167724609375,9.940773963928223,-8.8363618850708
1687149076214672100,0.945672119140625,20.18994140625,7.820899486541748,-12.301664352416992
1687149076224727000,0.95572705078125,14.219139099121094,3.6312174797058105,-13.55121898651123
1687149076234781700,0.96578173828125,5.878124713897705,-2.095639944076538,-11.64865779876709
1687149076244836600,0.975836669921875,-1.7427712678909302,-3.0224192142486572,-4.473042011260986
1687149076254891500,0.9858916015625,-5.951627731323242,-0.8162582516670227,2.2146830558776855
1687149076264946200,0.9959462890625,-7.211834907531738,-0.14620743691921234,5.347623348236084
1687149076275001000,1.0060009765625,-7.269359111785889,-0.7960182428359985,5.634179592132568
1687149076285056000,1.016055908203125,-6.478933334350586,-1.1177278757095337,4.40699577331543
1687149076295111000,1.02611083984375,-5.495695114135742,-0.6245108246803284,3.289534091949463
1687149076305165600,1.03616552734375,-5.491434097290039,-0.2047969400882721,2.342514753341675
1687149076315220500,1.046220458984375,-6.0698723793029785,0.31505173444747925,1.7789902687072754
1687149076325275400,1.056275390625,-6.844318866729736,0.18935060501098633,1.684181809425354
1687149076335330300,1.066330322265625,-7.658180236816406,-0.3731085956096649,2.0559587478637695
1687149076345385000,1.076385009765625,-8.368711471557617,-0.8908267021179199,2.588590621948242
1687149076355439900,1.08643994140625,-8.913061141967773,-1.2594079971313477,2.996586561203003
1687149076365494800,1.096494873046875,-9.276315689086914,-1.597096562385559,3.190464496612549
1687149076375549700,1.1065498046875,-9.411603927612305,-2.007223129272461,3.205378293991089
1687149076385604400,1.116604248046875,-9.235836029052734,-2.5196149349212646,3.0477192401885986
1687149076395659300,1.1266591796875,-8.730900764465332,-3.0256149768829346,2.698312759399414
1687149076405714200,1.136714111328125,-8.051262855529785,-3.3590426445007324,2.1113524436950684
1687149076415768800,1.146768798828125,-7.446192741394043,-3.484743595123291,1.379516363143921
1687149076425823700,1.15682373046875,-6.997716903686523,-3.464503765106201,0.6668550372123718
1687149076435878700,1.166878662109375,-6.641918659210205,-3.2354719638824463,0.0021305272821336985
1687149076445933600,1.17693359375,-6.17959451675415,-2.2032315731048584,-0.6828339695930481
1687149076455988200,1.18698828125,-4.71485710144043,-0.2836264371871948,-1.1163963079452515
1687149076466043100,1.197043212890625,-1.3262531757354736,1.0628668069839478,-0.8383625149726868
1687149076476098000,1.20709814453125,3.874363899230957,1.1608710289001465,0.15446323156356812
1687149076486153000,1.217153076171875,9.736509323120117,0.8636624813079834,1.4391711950302124
1687149076496207600,1.22720751953125,14.907299041748047,1.3792500495910645,2.223205327987671
1687149076506262500,1.237262451171875,19.3483829498291,3.1955246925354004,1.9504977464675903
1687149076516317400,1.2473173828125,22.891450881958008,5.676523685455322,0.3952127993106842
1687149076526372400,1.257372314453125,25.56313133239746,7.542865753173828,-2.033588409423828
1687149076536427000,1.267427001953125,26.143699645996094,6.322073459625244,-4.094873428344727
1687149076546482000,1.27748193359375,21.44695281982422,2.1686105728149414,-3.794469118118286
1687149076556536800,1.287536865234375,11.553849220275879,-2.071138858795166,-1.0993521213531494
1687149076566591700,1.297591796875,0.988564670085907,-4.275169372558594,2.088982105255127
1687149076576646700,1.307646728515625,-5.773728847503662,-3.2898004055023193,4.225900650024414
1687149076586701600,1.31770166015625,-8.099199295043945,-2.4546337127685547,4.093808174133301
1687149076596756500,1.327756591796875,-6.9380621910095215,-1.5992270708084106,1.8535587787628174
1687149076606811400,1.337811279296875,-4.057589054107666,-0.6032055616378784,-0.8958867192268372
1687149076616866300,1.3478662109375,-2.1390492916107178,-0.1856221854686737,-2.797382354736328
1687149076626921200,1.357921142578125,-1.7406407594680786,0.6591318845748901,-3.20005202293396
1687149076636976000,1.36797607421875,-1.8514281511306763,1.2535489797592163,-2.2498369216918945
1687149076647031000,1.378031005859375,-1.7725987434387207,0.9914941191673279,-0.5209138989448547
1687149076657086000,1.3880859375,-1.3358405828475952,-0.04500738903880119,1.0652636289596558
1687149076667140900,1.398140869140625,-0.6860297918319702,-1.1379679441452026,2.0058913230895996
1687149076677195800,1.40819580078125,0.029827382415533066,-1.5928354263305664,2.2359883785247803
1687149076687250700,1.418250732421875,0.6668550372123718,-1.2317110300064087,1.9036260843276978
1687149076697305300,1.428305419921875,1.131309986114502,-0.4530033767223358,1.247423768043518
1687149076707360300,1.4383603515625,1.3699290752410889,0.2330264151096344,0.5123918056488037
1687149076717415200,1.448415283203125,1.4146701097488403,0.6090644598007202,-0.13209268450737
1687149076727470000,1.458469970703125,1.3187963962554932,0.7443529963493347,-0.5826992392539978
1687149076737525000,1.46852490234375,1.1440931558609009,0.7038729786872864,-0.7755119204521179
1687149076747580000,1.478579833984375,0.9257140755653381,0.5014728307723999,-0.7179877161979675
1687149076757634800,1.488634765625,0.6796382069587708,0.25433170795440674,-0.4953475892543793
1687149076767689700,1.498689697265625,0.4048001766204834,0.035952646285295486,-0.20985694229602814
1687149076777744600,1.50874462890625,0.1597895473241806,-0.11851058155298233,0.03195790946483612
1687149076787799600,1.518799560546875,0.02450106292963028,-0.18242639303207397,0.16192007064819336
1687149076797854500,1.5288544921875,0.04474107176065445,-0.1525990217924118,0.18002955615520477
1687149076807909600,1.53890966796875,0.18002955615520477,-0.03435475379228592,0.11930952966213226
1687149076817964500,1.548964599609375,0.36005911231040955,0.138217955827713,0.017044218257069588
1687149076828019500,1.55901953125,0.5134570598602295,0.3086601495742798,-0.09587372839450836
1687149076838074400,1.569074462890625,0.6125265955924988,0.45673179626464844,-0.19600850343704224
1687149076848129300,1.57912939453125,0.6689855456352234,0.5771065950393677,-0.26098960638046265
1687149076858184200,1.58918408203125,0.6519413590431213,0.6250434517860413,-0.28549066185951233
1687149076868238800,1.59923876953125,0.5187833905220032,0.5760413408279419,-0.28442537784576416
1687149076878293800,1.609293701171875,0.3067959249019623,0.4716454744338989,-0.2684464454650879
1687149076888348700,1.6193486328125,0.08522108942270279,0.3470096290111542,-0.21944430470466614
1687149076898403600,1.629403564453125,-0.09480846673250198,0.20639483630657196,-0.1363537460565567
1687149076908458200,1.639458251953125,-0.21731378138065338,0.09347688406705856,-0.050067391246557236
1687149076918513200,1.64951318359375,-0.3067959249019623,0.003994738683104515,0.010652636177837849
1687149076928568000,1.659568115234375,-0.3536675274372101,-0.029028434306383133,0.04900212585926056
1687149076938623000,1.669623046875,-0.3483411967754364,0.016777902841567993,0.0703074038028717
1687149076948677600,1.679677734375,-0.3057306706905365,0.08815056830644608,0.08415582776069641
1687149076958732500,1.689732666015625,-0.23329274356365204,0.13502216339111328,0.10865689069032669
1687149076968787500,1.699787353515625,-0.1502021700143814,0.14993585646152496,0.13528847694396973
1687149076978842000,1.709842041015625,-0.06285055726766586,0.11478215456008911,0.1555284857749939
1687149076988897000,1.71989697265625,0.018109481781721115,0.0679105594754219,0.18002955615520477
1687149076998952000,1.729951904296875,0.09587372839450836,0.07004108279943466,0.19494324922561646
1687149077009006800,1.7400068359375,0.1693769246339798,0.11265163123607635,0.18642114102840424
1687149077019061500,1.7500615234375,0.20879167318344116,0.1573926955461502,0.17470324039459229
1687149077029116400,1.760116455078125,0.20559588074684143,0.16058848798274994,0.15659375488758087
1687149077039171300,1.77017138671875,0.15126743912696838,0.15100112557411194,0.11078742146492004
1687149077049226200,1.780226318359375,0.07563371956348419,0.1478053331375122,0.034088436514139175
1687149077059281000,1.790281005859375,0.018109481781721115,0.15526217222213745,-0.06817687302827835
1687149077069335800,1.800335693359375,-0.038349490612745285,0.1478053331375122,-0.18535587191581726
1687149077079390700,1.810390625,-0.10759162902832031,0.12543480098247528,-0.30892646312713623
1687149077089445600,1.820445556640625,-0.1736379712820053,0.12650005519390106,-0.4133222997188568
1687149077099500300,1.830500244140625,-0.24074958264827728,0.18508955836296082,-0.4804339110851288
1687149077109555200,1.84055517578125,-0.3238401412963867,0.25965800881385803,-0.5145223140716553
1687149077119610000,1.850610107421875,-0.4474107325077057,0.32037803530693054,-0.5305013060569763
1687149077129664800,1.860664794921875,-0.5795034170150757,0.33955278992652893,-0.5315665602684021
1687149077139719700,1.8707197265625,-0.6924213767051697,0.30546435713768005,-0.5273054838180542
1687149077149774600,1.880774658203125,-0.8372972011566162,0.24900537729263306,-0.52837073802948
1687149077159829500,1.89082958984375,-1.05674147605896,0.19254639744758606,-0.5454149842262268
1687149077169884400,1.900884521484375,-1.31453537940979,0.16378428041934967,-0.574177086353302
1687149077179939300,1.910939208984375,-1.5851123332977295,0.1765674501657486,-0.6061350107192993
1687149077189994200,1.920994140625,-1.867407202720642,0.2649843394756317,-0.6519413590431213
1687149077200049000,1.931048828125,-2.1507673263549805,0.42264336347579956,-0.7222487330436707
1687149077210103800,1.941103759765625,-2.4788684844970703,0.5685844421386719,-0.7936214208602905
1687149077220158700,1.95115869140625,-2.920952796936035,0.6601971387863159,-0.8351666927337646
1687149077230213600,1.961213623046875,-3.462106943130493,0.7038729786872864,-0.8277098536491394
1687149077240268500,1.9712685546875,-4.012847900390625,0.7166560888290405,-0.762728750705719
1687149077250323500,1.981323486328125,-4.535892486572266,0.6751108169555664,-0.6338318586349487
1687149077260378400,1.99137841796875,-4.987564563751221,0.5419528484344482,-0.4601939022541046
1687149077270433300,2.001433349609375,-5.325253009796143,0.33848753571510315,-0.25672852993011475
1687149077280488200,2.01148828125,-5.545762538909912,0.1201084777712822,-0.019174745306372643
1687149077290543000,2.021543212890625,-5.68637752532959,-0.09294424951076508,0.26631590723991394
1687149077300598000,2.031597900390625,-5.766272068023682,-0.2942790687084198,0.5912213325500488
1687149077310653000,2.04165283203125,-5.812078475952148,-0.47004759311676025,0.9193225502967834
1687149077320707800,2.051707763671875,-5.825926780700684,-0.6841655969619751,1.210139513015747
1687149077330762800,2.0617626953125,-5.767337322235107,-0.9227846264839172,1.4519543647766113
1687149077340817700,2.071817626953125,-5.6480278968811035,-1.1933616399765015,1.646897554397583
1687149077350872300,2.081872314453125,-5.485042572021484,-1.4799175262451172,1.7832512855529785
1687149077360927200,2.09192724609375,-5.324187755584717,-1.7494292259216309,1.8375797271728516
1687149077370982100,2.101982177734375,-5.20807409286499,-2.011484146118164,1.7981650829315186
1687149077381037000,2.112037109375,-5.245357990264893,-2.279930591583252,1.689508080482483
1687149077391092000,2.122092041015625,-5.561741352081299,-2.5249412059783936,1.5659375190734863
1687149077401147100,2.132147216796875,-6.165745735168457,-2.6836655139923096,1.3592764139175415
1687149077411202000,2.1422021484375,-6.696247100830078,-2.6495769023895264,0.9086698889732361
1687149077421257000,2.152257080078125,-6.204095363616943,-1.7888439893722534,0.17789903283119202
1687149077431312000,2.162311767578125,-3.848797559738159,0.11478215456008911,-0.5507413148880005
1687149077441366800,2.17236669921875,0.7318361401557922,1.9726018905639648,-0.8032087683677673
1687149077451421700,2.182421630859375,7.064828395843506,3.0101687908172607,-0.3440801501274109
1687149077461476600,2.1924765625,12.893951416015625,3.307377338409424,-0.10013478249311447
1687149077471531800,2.20253173828125,17.5129337310791,4.180893421173096,-0.7062698006629944
1687149077481586700,2.212586669921875,21.009130477905273,6.21554708480835,-2.4042999744415283
1687149077491641600,2.2226416015625,23.437931060791016,8.73169994354248,-5.021652698516846
1687149077501696500,2.232696533203125,24.435016632080078,9.545560836791992,-7.537805557250977
1687149077511751400,2.24275146484375,22.910625457763672,7.999863624572754,-8.390016555786133
1687149077521806300,2.252806396484375,16.244205474853516,4.273571491241455,-7.2011823654174805
1687149077531861200,2.262861328125,7.000912666320801,-3.3494551181793213,-5.279446601867676
1687149077541916400,2.27291650390625,-1.5211964845657349,-4.513788223266602,-1.3539501428604126
1687149077551971300,2.282971435546875,-6.668550491333008,-2.0700736045837402,2.0208051204681396
1687149077562026200,2.293026123046875,-8.505064964294434,0.11584742367267609,3.741205930709839
1687149077572081200,2.3030810546875,-8.359124183654785,-0.036485280841588974,3.2703592777252197
1687149077582136000,2.313135986328125,-6.3329925537109375,0.007190529722720385,2.281794786453247
1687149077592191000,2.32319091796875,-3.5537195205688477,-0.1621863842010498,1.4860427379608154
1687149077602246000,2.333245849609375,-2.436257839202881,-1.086835265159607,1.0322405099868774
1687149077612301000,2.343301025390625,-2.9678244590759277,-0.8684561848640442,1.1952258348464966
1687149077622356000,2.35335595703125,-4.018174648284912,-0.18881797790527344,1.7651418447494507
1687149077632411000,2.363410888671875,-5.011000156402588,-0.2601906359195709,2.543849468231201
1687149077642465800,2.3734658203125,-5.787577152252197,-1.0580731630325317,3.263967752456665
1687149077652520700,2.383520751953125,-6.275467872619629,-2.130793571472168,3.715639591217041
1687149077662575600,2.39357568359375,-6.505565166473389,-3.1012487411499023,3.8179049491882324
1687149077672630500,2.403630615234375,-6.55030632019043,-3.891674280166626,3.597395420074463
1687149077682685700,2.413685791015625,-6.4810638427734375,-4.432828426361084,3.115896224975586
1687149077692740600,2.42374072265625,-6.356428146362305,-4.616053581237793,2.4522368907928467
1687149077702795500,2.43379541015625,-6.200899600982666,-4.512722969055176,1.6884428262710571
1687149077712850400,2.443850341796875,-6.0592193603515625,-4.189948081970215,0.8969519734382629
1687149077722905300,2.4539052734375,-6.029392242431641,-3.7499942779541016,0.14700637757778168
1687149077732960300,2.463960205078125,-6.066676616668701,-3.270625591278076,-0.5550023317337036
1687149077743015200,2.47401513671875,-6.21261739730835,-2.7539727687835693,-1.1302447319030762
1687149077753070000,2.484070068359375,-6.499173641204834,-2.4993748664855957,-1.579785943031311
1687149077763125000,2.494125,-6.930605411529541,-2.686861276626587,-1.9728682041168213
1687149077773180000,2.504179931640625,-7.290664196014404,-3.103379249572754,-2.381929397583008
1687149077783234800,2.51423486328125,-6.800642967224121,-2.929741382598877,-2.6407885551452637
1687149077793289700,2.524289794921875,-4.567850589752197,-1.8634123802185059,-2.2509021759033203
1687149077803344600,2.5343447265625,-0.10120004415512085,-0.49774444103240967,-0.6924213767051697
1687149077813399600,2.544399658203125,6.45017147064209,0.9201214909553528,1.5297186374664307
1687149077823454200,2.5544541015625,12.926974296569824,1.7606145143508911,2.8346664905548096
1687149077833509000,2.564509033203125,18.321470260620117,3.053844451904297,2.887929677963257
1687149077843564000,2.57456396484375,22.595306396484375,4.996885299682617,1.7789902687072754
1687149077853619000,2.584618896484375,25.485366821289062,6.748178958892822,0.16085481643676758
1687149077863673900,2.594673828125,26.96714973449707,6.258157730102539,-0.9502151608467102
1687149077873728800,2.604728759765625,24.804664611816406,6.258157730102539,-0.06072002649307251
1687149077883783700,2.61478369140625,16.97284507751465,4.657066345214844,0.4463454782962799
1687149077893838600,2.624838623046875,6.283990383148193,1.6370439529418945,-0.04474107176065445
1687149077903893500,2.6348935546875,-2.654637098312378,1.9651451110839844,0.12889690697193146
1687149077913948400,2.644948486328125,-7.729552745819092,0.39068543910980225,0.03621896356344223
1687149077924003300,2.65500341796875,-9.340231895446777,-1.5448986291885376,-0.40693071484565735
1687149077934058200,2.665058349609375,-8.297338485717773,-1.7867134809494019,-1.0109351873397827
1687149077944113200,2.675113037109375,-5.345492839813232,-0.9558078050613403,-1.340101718902588
1687149077954168000,2.68516796875,-1.9622156620025635,-0.28682222962379456,-0.77870774269104
1687149077964223000,2.695222900390625,-0.1832253485918045,-0.05779055133461952,0.17470324039459229
1687149077974277600,2.705277587890625,0.2119874656200409,0.6250434517860413,0.9747162461280823
1687149077984332500,2.71533251953125,0.28868645429611206,0.684698224067688,1.515870213508606
1687149077994387500,2.725387451171875,0.50706547498703,0.10306425392627716,1.956889271736145
1687149078004442400,2.7354423828125,0.7563371658325195,-0.5648560523986816,2.262619972229004
1687149078014497300,2.745497314453125,0.8948214650154114,-0.9739173054695129,2.3989737033843994
1687149078024552200,2.75555224609375,0.9534109830856323,-1.0261151790618896,2.32120943069458
1687149078034607000,2.765607177734375,0.9331709742546082,-0.7896266579627991,1.9931082725524902
1687149078044662000,2.775662109375,0.8511456251144409,-0.43276336789131165,1.4668680429458618
1687149078054717000,2.785717041015625,0.7488803267478943,-0.031158961355686188,0.8245140314102173
1687149078064771800,2.795771728515625,0.6647245287895203,0.30652961134910583,0.20453062653541565
1687149078074826800,2.80582666015625,0.574177086353302,0.4439486265182495,-0.25246748328208923
1687149078084881700,2.815881591796875,0.4655202031135559,0.40453386306762695,-0.49641284346580505
1687149078094936600,2.8259365234375,0.36432015895843506,0.3139864504337311,-0.5645897388458252
1687149078104991500,2.835991455078125,0.27057695388793945,0.16804534196853638,-0.5113265514373779
1687149078115046400,2.84604638671875,0.19387798011302948,0.028495801612734795,-0.4101265072822571
1687149078125101300,2.856101318359375,0.14381058514118195,-0.040746334940195084,-0.3163833022117615
1687149078135156000,2.866156005859375,0.14487585425376892,-0.04500738903880119,-0.24607589840888977
1687149078145211000,2.8762109375,0.19068218767642975,-0.052464235574007034,-0.20133483409881592
1687149078155266000,2.88626611328125,0.24714116752147675,-0.06950845569372177,-0.18216007947921753
1687149078165321000,2.896321044921875,0.30466538667678833,-0.056725289672613144,-0.1789642870426178
1687149078175376000,2.9063759765625,0.39308229088783264,0.024234747514128685,-0.1789642870426178
1687149078185430800,2.9164306640625,0.4846949577331543,0.13502216339111328,-0.17257271707057953
1687149078195485700,2.926485595703125,0.5081307291984558,0.20213377475738525,-0.16192007064819336
1687149078205540600,2.93654052734375,0.4463454782962799,0.24900537729263306,-0.15765902400016785
1687149078215595500,2.946595458984375,0.3419496417045593,0.29161593317985535,-0.1555284857749939
1687149078225650700,2.956650634765625,0.2354232668876648,0.28735485672950745,-0.13422322273254395
1687149078235705600,2.96670556640625,0.16831165552139282,0.148870587348938,-0.06391581892967224
1687149078245760500,2.976760498046875,0.10439583659172058,-0.05566002428531647,0.0330231711268425
1687149078255815400,2.9868154296875,0.023435799404978752,-0.1909485012292862,0.12783163785934448
1687149078265870300,2.996870361328125,-0.03728422895073891,-0.20266640186309814,0.21411798894405365
1687149078275925200,3.00692529296875,-0.061785291880369186,-0.12170637398958206,0.28016433119773865
1687149078285980200,3.016980224609375,-0.06072002649307251,-0.02157158963382244,0.31744855642318726
1687149078296035300,3.027035400390625,-0.06072002649307251,0.03914843872189522,0.31744855642318726
1687149078306090200,3.03709033203125,-0.066046342253685,0.03488738462328911,0.2737727463245392
1687149078316145200,3.047145263671875,-0.06711161136627197,-0.005592633970081806,0.19920429587364197
1687149078326200000,3.057199951171875,-0.07669898122549057,-0.05779055133461952,0.12144005298614502
1687149078336255000,3.0672548828125,-0.11824426054954529,-0.12170637398958206,0.07243792712688446
1687149078346310000,3.077309814453125,-0.22477063536643982,-0.1621863842010498,0.025566328316926956
1687149078356364800,3.08736474609375,-0.36964648962020874,-0.13235901296138763,-0.041545283049345016
1687149078366420000,3.097419921875,-0.49641284346580505,-0.0354200154542923,-0.12570111453533173
1687149078376475000,3.107474853515625,-0.5997434258460999,0.08602003753185272,-0.2215748429298401
1687149078386529800,3.11752978515625,-0.6977477073669434,0.2138516753911972,-0.3387538492679596
1687149078396584700,3.127584716796875,-0.7733814120292664,0.318247526884079,-0.4612591564655304
1687149078406639600,3.1376396484375,-0.8213182687759399,0.3470096290111542,-0.5454149842262268
1687149078416694500,3.147694580078125,-0.8575372099876404,0.30013802647590637,-0.5581981539726257
1687149078426749400,3.15774951171875,-0.8788425326347351,0.2234390527009964,-0.5038697123527527
1687149078436804400,3.167804443359375,-0.9065393805503845,0.17443692684173584,-0.40266966819763184
1687149078446859500,3.177859619140625,-0.9459540843963623,0.17869797348976135,-0.28016433119773865
1687149078456914400,3.18791455078125,-1.0056089162826538,0.261788547039032,-0.16192007064819336
1687149078466969300,3.19796923828125,-1.123853087425232,0.3821633458137512,-0.06072002649307251
1687149078477024300,3.208024169921875,-1.3486237525939941,0.47910231351852417,0.0021305272821336985
1687149078487079200,3.2180791015625,-1.6682028770446777,0.49934232234954834,0.023435799404978752
1687149078497134000,3.228134033203125,-1.9931082725524902,0.4407528340816498,0.010652636177837849
1687149078507189000,3.23818896484375,-2.3190789222717285,0.3363569974899292,-0.02024000883102417
1687149078517244200,3.248244140625,-2.6418538093566895,0.2191779911518097,-0.05326318368315697
1687149078527299000,3.258299072265625,-2.9337360858917236,0.1435442715883255,-0.08202529698610306
1687149078537354000,3.26835400390625,-3.2426624298095703,0.14141374826431274,-0.10120004415512085
1687149078547409000,3.278408935546875,-3.582481622695923,0.1478053331375122,-0.1129179447889328
1687149078557463800,3.2884638671875,-3.9276270866394043,0.10306425392627716,-0.1129179447889328
1687149078567518700,3.298518798828125,-4.233357906341553,-0.05459476262331009,-0.09267793595790863
1687149078577573600,3.30857373046875,-4.543349266052246,-0.31878015398979187,-0.0564589723944664
1687149078587628800,3.31862890625,-4.93004035949707,-0.6277065873146057,-0.0031957910396158695
1687149078597683700,3.32868359375,-5.382777214050293,-0.9004141092300415,0.07563371956348419
1687149078607738600,3.338738525390625,-5.8067522048950195,-1.108140468597412,0.1693769246339798
1687149078617793500,3.34879345703125,-6.145505905151367,-1.3275848627090454,0.26951169967651367
1687149078627848400,3.358848388671875,-6.4469757080078125,-1.5693997144699097,0.33236226439476013
1687149078637903400,3.3689033203125,-6.766554832458496,-1.8101491928100586,0.3526022732257843
1687149078647958300,3.378958251953125,-7.1564412117004395,-2.0935094356536865,0.3419496417045593
1687149078658013400,3.389013427734375,-7.662441253662109,-2.4397201538085938,0.3142527639865875
1687149078668068400,3.399068359375,-8.269641876220703,-3.092726707458496,0.3344927728176117
1687149078678123300,3.409123291015625,-8.694682121276855,-4.03335428237915,0.40799596905708313
1687149078688178200,3.41917822265625,-8.309056282043457,-4.833367347717285,0.7009434700012207
1687149078698233000,3.429233154296875,-6.76548957824707,-4.655468463897705,1.5361101627349854
1687149078708288000,3.4392880859375,-3.9958038330078125,-2.9478507041931152,2.985934019088745
1687149078718343000,3.449343017578125,0.03195790946483612,-0.3304980397224426,4.443214416503906
1687149078728398000,3.459398193359375,4.859732627868652,1.8905766010284424,5.004608631134033
1687149078738453000,3.469452880859375,9.881385803222656,3.619499444961548,4.613656997680664
1687149078748508000,3.4795078125,14.59624195098877,5.135369777679443,3.2756857872009277
1687149078758562800,3.489562744140625,18.76994514465332,7.131673812866211,0.845819354057312
1687149078768617700,3.49961767578125,21.82192611694336,10.141043663024902,-2.744119167327881
1687149078778672600,3.509672607421875,23.55510902404785,12.809529304504395,-6.850710391998291
1687149078788727600,3.5197275390625,23.227008819580078,12.324833869934082,-10.252097129821777
1687149078798782700,3.52978271484375,18.78272819519043,9.706416130065918,-11.347187995910645
1687149078808837600,3.539837646484375,9.363667488098145,5.625391006469727,-10.434257507324219
1687149078818892500,3.549892578125,-0.4101265072822571,-0.5616602301597595,-7.097851753234863
1687149078828947500,3.559947509765625,-6.3926472663879395,-0.8684561848640442,-0.49108654260635376
1687149078839002600,3.570002685546875,-8.437952995300293,-0.9867004752159119,4.828840255737305
1687149078849057500,3.5800576171875,-8.576437950134277,-1.540637493133545,6.95617151260376
1687149078859112400,3.590112548828125,-7.461106777191162,-3.132141351699829,5.457345485687256
1687149078869167600,3.600167724609375,-5.035501003265381,-1.8048229217529297,4.1001996994018555
1687149078879222500,3.610222412109375,-2.9901950359344482,-0.3933486044406891,2.708965539932251
1687149078889277400,3.62027734375,-2.4788684844970703,0.7880287766456604,1.5787206888198853
1687149078899332600,3.63033251953125,-3.0093698501586914,1.627456545829773,0.884168803691864
1687149078909387500,3.640387451171875,-3.8807554244995117,1.7851155996322632,0.7222487330436707
1687149078919442400,3.6504423828125,-4.796882152557373,1.1353046894073486,0.9906951785087585
1687149078929497600,3.66049755859375,-5.610743522644043,0.019973693415522575,1.4700638055801392
1687149078939552500,3.670552490234375,-6.236053466796875,-1.1187931299209595,1.9057567119598389
1687149078949607400,3.680607421875,-6.638722896575928,-1.996570348739624,2.166746139526367
1687149078959662600,3.69066259765625,-6.807034492492676,-2.4812653064727783,2.258358955383301
1687149078969717500,3.700717529296875,-6.784664154052734,-2.5686168670654297,2.182725191116333
1687149078979772400,3.7107724609375,-6.646179676055908,-2.4897873401641846,1.956889271736145
1687149078989827600,3.72082763671875,-6.413952350616455,-2.3118884563446045,1.6032217741012573
1687149078999882500,3.730882568359375,-6.121005058288574,-2.0945746898651123,1.178181529045105
1687149079009937400,3.7409375,-5.854689121246338,-1.949698805809021,0.7424887418746948
1687149079019992600,3.75099267578125,-5.694899559020996,-1.929458737373352,0.3387538492679596
1687149079030047500,3.761047607421875,-5.688508033752441,-2.0647473335266113,0.04900212585926056
1687149079040102400,3.771102294921875,-5.78438138961792,-2.487656831741333,-0.0564589723944664
1687149079050157600,3.781157470703125,-6.020870208740234,-3.038398265838623,-0.02024000883102417
1687149079060212500,3.79121240234375,-6.234988212585449,-3.1119015216827393,0.010652636177837849
1687149079070267400,3.801267333984375,-5.496760368347168,-2.5110926628112793,0.11185268312692642
1687149079080322600,3.811322509765625,-3.273555278778076,-1.8729997873306274,0.48682549595832825
1687149079090377500,3.82137744140625,0.30892646312713623,-1.6045533418655396,1.366733193397522
1687149079100432400,3.831432373046875,4.871450424194336,-1.2540816068649292,2.6972475051879883
1687149079110487600,3.841487548828125,9.749292373657227,-0.284691721200943,3.62083101272583
1687149079120542500,3.85154248046875,14.129656791687012,1.4655364751815796,3.5931341648101807
1687149079130597400,3.861597412109375,17.69615936279297,3.5236258506774902,2.654637098312378
1687149079140652500,3.871652587890625,20.151592254638672,5.2632012367248535,1.076981544494629
1687149079150707500,3.88170751953125,21.01871681213379,5.822464942932129,-0.590156078338623
1687149079160762600,3.8917626953125,17.72385597229004,3.7665059566497803,-1.7704681158065796
1687149079170817500,3.901817626953125,10.11361312866211,1.9736672639846802,-2.0623505115509033
1687149079180872400,3.91187255859375,2.7515759468078613,1.8287913799285889,-2.5161526203155518
1687149079190927600,3.921927734375,-1.7704681158065796,2.601107597351074,-2.936931848526001
1687149079200982500,3.931982421875,-4.141745090484619,2.7971160411834717,-3.3822121620178223
1687149079211037400,3.942037353515625,-4.593416690826416,2.2719409465789795,-3.874363899230957
1687149079221092400,3.95209228515625,-3.5334794521331787,1.6285218000411987,-3.7422711849212646
1687149079231147300,3.962147216796875,-2.0325229167938232,1.0096036195755005,-2.436257839202881
1687149079241202200,3.9722021484375,-0.9384972453117371,0.6793718934059143,-0.320644348859787
1687149079251257000,3.982257080078125,-0.28016433119773865,0.4641886353492737,1.7150744199752808
1687149079261312300,3.992312255859375,0.06391581892967224,0.04127896577119827,3.169159412384033
1687149079271367200,4.0023671875,0.2716422379016876,-0.4775044322013855,3.9159090518951416
1687149079281422000,4.012422119140625,0.40586546063423157,-0.8865656852722168,4.029892444610596
1687149079291477000,4.02247705078125,0.38456016778945923,-1.096422553062439,3.7039217948913574
1687149079301532000,4.032531982421875,0.2684464454650879,-1.0218541622161865,3.091395139694214
1687149079311586800,4.0425869140625,0.19920429587364197,-0.7342329621315002,2.2935125827789307
1687149079321641700,4.052641845703125,0.1981390416622162,-0.3273022472858429,1.3997564315795898
1687149079331697000,4.06269677734375,0.24820642173290253,0.10519478470087051,0.5336970686912537
1687149079341751800,4.072751708984375,0.32703593373298645,0.42370861768722534,-0.188551664352417
1687149079351806700,4.082806640625,0.40586546063423157,0.5653886795043945,-0.6721813678741455
1687149079361861600,4.092861572265625,0.44954127073287964,0.5078644156455994,-0.8894951343536377
1687149079371916500,4.10291650390625,0.44847598671913147,0.3129211962223053,-0.8820382952690125
1687149079381971500,4.112971435546875,0.4431496858596802,0.08602003753185272,-0.7201182246208191
1687149079392026400,4.1230263671875,0.47830337285995483,-0.1291632205247879,-0.4857602119445801
1687149079402081300,4.133081298828125,0.5123918056488037,-0.3028011918067932,-0.2311622053384781
1687149079412136400,4.143136474609375,0.5155876278877258,-0.4338286221027374,0.019174745306372643
1687149079422191400,4.15319140625,0.5209138989448547,-0.5137233734130859,0.2492716908454895
1687149079432246300,4.163246337890625,0.5805686712265015,-0.529702365398407,0.4324970245361328
1687149079442301200,4.17330126953125,0.6902908682823181,-0.47324338555336,0.5613939166069031
1687149079452356000,4.183356201171875,0.7531414031982422,-0.34328120946884155,0.6263750195503235
1687149079462411000,4.193410888671875,0.7265098094940186,-0.19734008610248566,0.6359623670578003
1687149079472466000,4.2034658203125,0.6391581892967224,-0.06311687082052231,0.5965476632118225
1687149079482521000,4.21352099609375,0.5432844758033752,0.00612526573240757,0.5305013060569763
1687149079492576000,4.223575927734375,0.4463454782962799,-0.05033370852470398,0.4506065249443054
1687149079502631000,4.233630859375,0.309991717338562,-0.16005586087703705,0.35899385809898376
1687149079512685800,4.243685791015625,0.12996216118335724,-0.2324937880039215,0.2716422379016876
1687149079522740700,4.25374072265625,-0.05965476483106613,-0.2601906359195709,0.19600850343704224
1687149079532795600,4.263795654296875,-0.2311622053384781,-0.24847275018692017,0.12996216118335724
1687149079542850600,4.2738505859375,-0.3675159513950348,-0.1525990217924118,0.030892645940184593
1687149079552905700,4.28390576171875,-0.45380231738090515,0.030626330524683,-0.09054741263389587
1687149079562960600,4.293960693359375,-0.490021288394928,0.24580958485603333,-0.2162485122680664
1687149079573015600,4.304015625,-0.519848644733429,0.4205128252506256,-0.3238401412963867
1687149079583070500,4.314070556640625,-0.5965476632118225,0.5099949836730957,-0.38242965936660767
1687149079593125400,4.32412548828125,-0.6828339695930481,0.5291697382926941,-0.37390753626823425
1687149079603180300,4.33418017578125,-0.7222487330436707,0.439687579870224,-0.30892646312713623
1687149079613235200,4.344235107421875,-0.7520761489868164,0.20213377475738525,-0.18429060280323029
1687149079623290400,4.354290283203125,-0.8032087683677673,-0.023702116683125496,-0.03621896356344223
1687149079633345300,4.36434521484375,-0.905474066734314,-0.05992107838392258,0.06498108059167862
1687149079643400200,4.374400146484375,-1.0450236797332764,0.10306425392627716,0.10226531326770782
1687149079653455000,4.384455078125,-1.2048131227493286,0.3075948655605316,0.07350318878889084
1687149079663510300,4.39451025390625,-1.4210617542266846,0.588824450969696,-0.014913691207766533
1687149079673565200,4.404565185546875,-1.6586154699325562,0.7486140131950378,-0.07669898122549057
1687149079683620000,4.4146201171875,-1.9803251028060913,0.5376918315887451,-0.07669898122549057
1687149079693675300,4.42467529296875,-2.401104211807251,0.3608580529689789,-0.0990695208311081
1687149079703730200,4.434730224609375,-2.8900601863861084,0.2564622163772583,-0.13209268450737
1687149079713785000,4.44478515625,-3.4013867378234863,0.18402428925037384,-0.13741901516914368
1687149079723840300,4.45484033203125,-3.9063217639923096,0.11797794699668884,-0.09587372839450836
1687149079733895200,4.464895263671875,-4.425105094909668,0.048735812306404114,-0.030892645940184593
1687149079743950000,4.4749501953125,-4.944953918457031,-0.0727042406797409,0.05752423778176308
1687149079754005200,4.485005126953125,-5.410473823547363,-0.19734008610248566,0.16724638640880585
1687149079764060200,4.49506005859375,-5.792903900146484,-0.33369383215904236,0.28549066185951233
1687149079774115300,4.505115234375,-6.133788108825684,-0.5392897129058838,0.4378233551979065
1687149079784170200,4.515170166015625,-6.416082859039307,-0.8056056499481201,0.6146571040153503
1687149079794225200,4.52522509765625,-6.5854597091674805,-1.0804436206817627,0.7872298359870911
1687149079804280300,4.5352802734375,-6.609961032867432,-1.3435637950897217,0.9278446435928345
1687149079814335200,4.545335205078125,-6.555632591247559,-1.4650038480758667,1.0375667810440063
1687149079824390100,4.55539013671875,-6.568415641784668,-1.8708692789077759,1.0801773071289062
1687149079834445300,4.5654453125,-6.7100958824157715,-2.210688352584839,1.1068089008331299
1687149079844500200,4.575500244140625,-6.917821884155273,-2.567551612854004,1.1302447319030762
1687149079854555100,4.58555517578125,-7.068024158477783,-3.08420467376709,1.1920300722122192
1687149079864610300,4.5956103515625,-7.215030670166016,-3.548659563064575,1.1898994445800781
1687149079874665200,4.605665283203125,-7.0168914794921875,-3.479417324066162,0.8554067015647888
1687149079884720000,4.61572021484375,-5.326318264007568,-2.035985231399536,0.3962780833244324
1687149079894775300,4.625775390625,-1.2548805475234985,0.2745717167854309,0.10759162902832031
1687149079904830200,4.635830322265625,4.969454765319824,2.352900981903076,0.27057695388793945
1687149079914885000,4.645885009765625,11.358905792236328,3.161436080932617,0.5965476632118225
1687149079924940300,4.655940185546875,16.522239685058594,3.5577142238616943,0.34088435769081116
1687149079934995200,4.6659951171875,20.5638484954834,4.898880958557129,-0.9992172718048096
1687149079945050000,4.676050048828125,23.49652099609375,7.3521833419799805,-3.5931341648101807
1687149079955105300,4.686105224609375,25.02517318725586,9.522125244140625,-6.895451545715332
1687149079965160200,4.69616015625,23.99506378173828,8.978840827941895,-9.645962715148926
1687149079975215000,4.706215087890625,18.429061889648438,6.6523051261901855,-10.60469913482666
1687149079985270300,4.716270263671875,8.717052459716797,3.583280563354492,-9.590568542480469
1687149079995325200,4.7263251953125,-0.5539370775222778,-0.4199801981449127,-6.548175811767578
1687149080005380000,4.736380126953125,-5.966541767120361,-1.029310941696167,-1.3709943294525146
1687149080015435300,4.746435302734375,-7.988411903381348,-1.5417027473449707,2.6951169967651367
1687149080025490200,4.756490234375,-8.034218788146973,-1.8740650415420532,4.333492279052734
1687149080035545000,4.766545166015625,-6.747379779815674,-1.632250189781189,3.8274922370910645
1687149080045600300,4.776600341796875,-4.964128494262695,-0.629837155342102,3.0775465965270996
1687149080055655200,4.7866552734375,-4.163050174713135,-0.03009369783103466,2.3244051933288574
1687149080065710000,4.7967099609375,-4.347341060638428,0.4673844277858734,1.8088176250457764
1687149080075765200,4.80676513671875,-5.025913715362549,0.5153213143348694,1.691638708114624
1687149080085820200,4.816820068359375,-5.928192138671875,0.12756532430648804,2.022935628890991
1687149080095875300,4.826875244140625,-6.854971408843994,-0.43808966875076294,2.5907211303710938
1687149080105930200,4.83693017578125,-7.6230268478393555,-1.0729868412017822,3.0988519191741943
1687149080115985200,4.846985107421875,-8.07043743133545,-1.8346502780914307,3.4013867378234863
1687149080126040300,4.857040283203125,-8.174833297729492,-2.5643558502197266,3.482346773147583
1687149080136095200,4.86709521484375,-8.000129699707031,-2.9872655868530273,3.3598415851593018
1687149080146150100,4.877150146484375,-7.603851795196533,-3.0149624347686768,3.086068868637085
1687149080156205300,4.887205322265625,-7.119156837463379,-2.7124276161193848,2.638658046722412
1687149080166260200,4.89726025390625,-6.738857746124268,-2.3225409984588623,2.0868513584136963
1687149080176315100,4.907315185546875,-6.583329200744629,-2.095639944076538,1.5744596719741821
1687149080186370300,4.917370361328125,-6.64831018447876,-2.1968400478363037,1.1302447319030762
1687149080196425200,4.92742529296875,-6.6397881507873535,-2.4759390354156494,0.829840362071991
1687149080206480100,4.937480224609375,-5.642701625823975,-2.3608906269073486,0.7776424288749695
1687149080216535300,4.947535400390625,-2.7494454383850098,-1.5012227296829224,1.131309986114502
1687149080226590200,4.957590087890625,2.1358535289764404,-0.09614004194736481,1.758750319480896
1687149080236645000,4.96764501953125,7.947932243347168,1.061801552772522,2.2743377685546875
1687149080246700300,4.9777001953125,13.194355010986328,2.0301260948181152,2.42134428024292
1687149080256755200,4.987755126953125,17.248748779296875,3.4085774421691895,1.7736639976501465
1687149080266810000,4.99781005859375,20.033348083496094,5.414468765258789,0.03621896356344223
1687149080276865300,5.007865234375,21.441627502441406,7.003842353820801,-2.143310546875
1687149080286920200,5.017920166015625,20.51165199279785,6.175066947937012,-3.163832902908325
1687149080296975000,5.02797509765625,16.014108657836914,3.732417583465576,-2.074068307876587
1687149080307030300,5.0380302734375,7.975628852844238,-0.3976096510887146,-0.2716422379016876
1687149080317085200,5.048085205078125,0.19920429587364197,-3.6051185131073,0.4463454782962799
1687149080327140000,5.05814013671875,-4.045871257781982,-2.9627645015716553,0.3707117438316345
1687149080337195300,5.0681953125,-5.475455284118652,-1.1155973672866821,-0.921453058719635
1687149080347250200,5.078250244140625,-5.051480293273926,0.8199867010116577,-2.743053913116455
1687149080357305000,5.08830517578125,-3.4290835857391357,2.175002098083496,-4.061850070953369
1687149080367360300,5.0983603515625,-1.738510251045227,2.3507704734802246,-4.142810344696045
1687149080377415200,5.108415283203125,-0.6210486888885498,1.7446355819702148,-2.827209711074829
1687149080387470000,5.118469970703125,0.12144005298614502,1.0820415019989014,-0.5816339254379272
1687149080397525200,5.128525146484375,0.6178529262542725,0.3043990731239319,1.7054871320724487
1687149080407580200,5.138580078125,0.8777772188186646,-0.5041360259056091,3.363037347793579
1687149080417635300,5.14863525390625,1.0620678663253784,-1.074052095413208,4.262119770050049
1687149080427690200,5.158690185546875,1.1717900037765503,-1.352085828781128,4.491151332855225
1687149080437745200,5.1687451171875,1.1174615621566772,-1.346759557723999,4.1641154289245605
1687149080447800300,5.17880029296875,0.9139962196350098,-1.0847047567367554,3.413104772567749
1687149080457855200,5.188855224609375,0.628505527973175,-0.6745781898498535,2.4085609912872314
1687149080467910100,5.19891015625,0.33662331104278564,-0.3091927766799927,1.3518195152282715
1687149080477965300,5.20896533203125,0.15446323156356812,0.015712639316916466,0.38242965936660767
1687149080488020200,5.219020263671875,0.12996216118335724,0.3310306668281555,-0.4133222997188568
1687149080498075100,5.2290751953125,0.17044217884540558,0.5526055097579956,-0.9331709742546082
1687149080508130600,5.239130615234375,0.1832253485918045,0.5675191879272461,-1.1579415798187256
1687149080518185700,5.249185791015625,0.16618113219738007,0.4247738718986511,-1.1536805629730225
1687149080528241000,5.259240966796875,0.14274533092975616,0.25326642394065857,-1.0056089162826538
1687149080538295800,5.2692958984375,0.14487585425376892,0.12330426275730133,-0.7819035053253174
1687149080548351000,5.27935107421875,0.2066611498594284,0.04660528525710106,-0.5305013060569763
1687149080558406000,5.289406005859375,0.33129698038101196,0.03488738462328911,-0.29827383160591125
1687149080568460800,5.299460693359375,0.4836297035217285,0.014647374860942364,-0.11504847556352615
1687149080578516000,5.309515869140625,0.5912213325500488,-0.07590003311634064,0.041545283049345016
1687149080588571000,5.31957080078125,0.5944170951843262,-0.1952095627784729,0.17683376371860504
1687149080598625800,5.329625732421875,0.5049349665641785,-0.2569948434829712,0.2737727463245392
1687149080608681000,5.339680908203125,0.3760380744934082,-0.2186453640460968,0.3195790946483612
1687149080618735900,5.34973583984375,0.22796641290187836,-0.11211899667978287,0.31744855642318726
1687149080628790800,5.359790771484375,0.05539371073246002,-0.0002663159102667123,0.27590328454971313
1687149080638846000,5.369845947265625,-0.17470324039459229,0.09880319982767105,0.21837905049324036
1687149080648900900,5.37990087890625,-0.452737033367157,0.14993585646152496,0.1502021700143814
1687149080658955800,5.389955810546875,-0.7105308771133423,0.1712411344051361,0.07882951200008392
1687149080669011000,5.400010986328125,-0.9353014826774597,0.20213377475738525,0.023435799404978752
1687149080679065900,5.41006591796875,-1.1760510206222534,0.25007063150405884,-0.023435799404978752
1687149080689120800,5.420120849609375,-1.433844804763794,0.34274858236312866,-0.10120004415512085
1687149080699176000,5.430176025390625,-1.689508080482483,0.48442864418029785,-0.24394537508487701
1687149080709230800,5.44023095703125,-1.9451713562011719,0.6090644598007202,-0.43036651611328125
1687149080719285800,5.45028564453125,-2.242379903793335,0.6665887236595154,-0.6093307733535767
1687149080729341000,5.4603408203125,-2.57900333404541,0.6420876383781433,-0.7339666485786438
1687149080739395800,5.470395751953125,-2.902843475341797,0.5589970946311951,-0.80001300573349
1687149080749451000,5.480450927734375,-3.229879379272461,0.5099949836730957,-0.8319709300994873
1687149080759506000,5.490505859375,-3.5750248432159424,0.5270391702651978,-0.8500803709030151
1687149080769560800,5.500560791015625,-3.9574544429779053,0.5579318404197693,-0.875646710395813
1687149080779616000,5.510615966796875,-4.353732585906982,0.6079992055892944,-0.9321056604385376
1687149080789671000,5.5206708984375,-4.753206253051758,0.626108705997467,-0.9960215091705322
1687149080799725800,5.530725830078125,-5.151615142822266,0.5952160358428955,-1.0535457134246826
1687149080809781000,5.540781005859375,-5.616069793701172,0.5653886795043945,-1.0695246458053589
1687149080819836000,5.5508359375,-6.093307971954346,0.5025381445884705,-1.0151962041854858
1687149080829890800,5.560890869140625,-6.494912624359131,0.3704454302787781,-0.8958867192268372
1687149080839946000,5.570946044921875,-6.767620086669922,0.19893798232078552,-0.7350319027900696
1687149080850001000,5.5810009765625,-6.892255783081055,0.00612526573240757,-0.5507413148880005
1687149080860055800,5.591055908203125,-6.877342224121094,-0.23888537287712097,-0.35473278164863586
1687149080870111000,5.601111083984375,-6.732466220855713,-0.47111284732818604,-0.1267663687467575
1687149080880166000,5.611165771484375,-6.451236724853516,-0.6458160877227783,0.12889690697193146
1687149080890220800,5.621220703125,-6.080524921417236,-0.7629950642585754,0.42077913880348206
1687149080900276000,5.63127587890625,-5.685312271118164,-0.7906919121742249,0.7318361401557922
1687149080910331000,5.641330810546875,-5.331644535064697,-0.8013445734977722,1.0524804592132568
1687149080920385800,5.6513857421875,-5.117526531219482,-0.894022524356842,1.374190092086792
1687149080930441000,5.66144091796875,-5.048284530639648,-1.1922963857650757,1.6319838762283325
1687149080940496000,5.671495849609375,-5.056806564331055,-1.5768564939498901,1.7917734384536743
1687149080950550800,5.68155078125,-5.054676055908203,-1.8122798204421997,1.8247966766357422
1687149080960606000,5.69160595703125,-4.80007791519165,-1.7046881914138794,1.7182703018188477
1687149080970660900,5.701660888671875,-3.7145743370056152,-1.3659342527389526,1.4998911619186401
1687149080980715800,5.7117158203125,-1.5691334009170532,-0.5723128914833069,1.3081437349319458
1687149080990771000,5.72177099609375,1.6479628086090088,0.5856286883354187,1.461541771888733
1687149081000825900,5.731825927734375,5.833383560180664,1.6764585971832275,2.183790445327759
1687149081010880800,5.741880859375,10.339448928833008,2.528669595718384,2.9433233737945557
1687149081020936000,5.75193603515625,14.351231575012207,3.181676149368286,2.822948694229126
1687149081030990800,5.761990966796875,17.558740615844727,3.9284260272979736,1.555284857749939
1687149081041045800,5.772045654296875,19.918298721313477,5.248287677764893,-0.9395625591278076
1687149081051101000,5.782100830078125,21.265857696533203,6.162283897399902,-4.217378616333008
1687149081061155800,5.79215576171875,19.62322235107422,4.757201194763184,-6.6206135749816895
1687149081071211000,5.8022109375,15.054306030273438,2.0226693153381348,-7.168159008026123
1687149081081266000,5.812265869140625,9.08456802368164,0.18722008168697357,-6.750575542449951
1687149081091320800,5.82232080078125,2.8698203563690186,0.9840372800827026,-5.416865825653076
1687149081101376000,5.8323759765625,-1.8769944906234741,2.1888504028320312,-3.5686330795288086
1687149081111431000,5.842430908203125,-4.310056686401367,1.6764585971832275,-1.4498238563537598
1687149081121485800,5.85248583984375,-4.840558052062988,0.6538055539131165,0.9480846524238586
1687149081131541000,5.862541015625,-4.734031677246094,0.42264336347579956,2.847449779510498
1687149081141596000,5.872595947265625,-4.730835914611816,0.9307740926742554,3.7486627101898193
1687149081151650800,5.88265087890625,-5.040827751159668,1.3994901180267334,3.9223008155822754
1687149081161706000,5.8927060546875,-5.785446643829346,1.2684626579284668,3.7678375244140625
1687149081171761000,5.902760986328125,-6.825144290924072,0.7081339955329895,3.512174129486084
1687149081181815800,5.91281591796875,-7.781750679016113,0.09028109163045883,3.2309446334838867
1687149081191871000,5.92287109375,-8.456062316894531,-0.349672794342041,2.926279306411743
1687149081201926000,5.93292578125,-8.887494087219238,-0.6617950201034546,2.624809503555298
1687149081211980800,5.942980712890625,-9.086698532104492,-1.0080057382583618,2.346775770187378
1687149081222036000,5.953035888671875,-9.050479888916016,-1.4160016775131226,2.088982105255127
1687149081232091000,5.9630908203125,-8.815056800842285,-1.832519769668579,1.8034913539886475
1687149081242145800,5.973145751953125,-8.395342826843262,-2.186187267303467,1.4594111442565918
1687149081252201000,5.983200927734375,-7.836079120635986,-2.442915916442871,1.0673941373825073
1687149081262255900,5.993255859375,-7.242727279663086,-2.621880054473877,0.7009434700012207
1687149081272310800,6.003310791015625,-6.650440692901611,-2.829606533050537,0.38882121443748474
1687149081282366000,6.013365966796875,-6.06454610824585,-2.983004570007324,0.10546109825372696
1687149081292420900,6.0234208984375,-5.475455284118652,-3.1747519969940186,-0.08309056609869003
1687149081302475800,6.033475830078125,-4.840558052062988,-3.143859386444092,-0.22796641290187836
1687149081312531000,6.043531005859375,-3.7827510833740234,-2.3917832374572754,-0.30892646312713623
1687149081322585900,6.0535859375,-1.5808511972427368,-0.990961492061615,-0.17044217884540558
1687149081332640800,6.063640869140625,2.0367841720581055,0.30013802647590637,0.5411539077758789
1687149081342696000,6.073696044921875,6.696247100830078,0.9712541103363037,1.8610155582427979
1687149081352750800,6.083750732421875,11.732813835144043,1.2247868776321411,3.026413917541504
1687149081362805800,6.0938056640625,16.495607376098633,1.7180039882659912,3.2405319213867188
1687149081372861000,6.10386083984375,20.75346565246582,3.132673978805542,2.1805946826934814
1687149081382915800,6.113915771484375,24.425430297851562,5.334574222564697,0.03728422895073891
1687149081392971000,6.123970947265625,27.429473876953125,6.837660789489746,-2.4319968223571777
1687149081403026000,6.13402587890625,28.126155853271484,5.532712936401367,-3.5878078937530518
1687149081413080800,6.144080810546875,23.448583602905273,6.534060955047607,-1.9611504077911377
1687149081423136000,6.154135986328125,13.529913902282715,4.325769424438477,-2.162485122680664
1687149081433191000,6.16419091796875,3.4493236541748047,3.142261505126953,-1.8152092695236206
1687149081443245800,6.174245849609375,-3.655984878540039,1.883119821548462,-0.22264009714126587
1687149081453301000,6.184301025390625,-7.209704399108887,-0.7246456146240234,1.0503499507904053
1687149081463356000,6.19435595703125,-8.263250350952148,-2.7198843955993652,1.5542196035385132
1687149081473410800,6.204410888671875,-7.218226432800293,-2.665555953979492,1.726792335510254
1687149081483466000,6.214466064453125,-4.31431770324707,-0.945155143737793,1.8642113208770752
1687149081493521000,6.22452099609375,-1.2165310382843018,0.25859275460243225,1.9036260843276978
1687149081503575800,6.234575927734375,0.2876211702823639,0.8721846342086792,1.9494324922561646
1687149081513631000,6.244630859375,0.854341447353363,1.2663321495056152,1.964346170425415
1687149081523686000,6.254685791015625,1.1153310537338257,1.2141342163085938,2.0516977310180664
1687149081533740800,6.26474072265625,1.1600720882415771,0.5920202732086182,2.241314649581909
1687149081543796000,6.2747958984375,0.9480846524238586,-0.3592601716518402,2.40643048286438
1687149081553851000,6.284850830078125,0.5038697123527527,-1.284974217414856,2.3627548217773438
1687149081563905800,6.29490576171875,-0.006391582079231739,-1.9092187881469727,2.034653663635254
1687149081573961000,6.3049609375,-0.3994738757610321,-2.081791400909424,1.4423669576644897
1687149081584016000,6.315015869140625,-0.565654993057251,-1.8346502780914307,0.665789783000946
1687149081594071000,6.325071044921875,-0.5507413148880005,-1.3904353380203247,-0.14274533092975616
1687149081604126200,6.335126220703125,-0.4271707236766815,-0.84821617603302,-0.8724509477615356
1687149081614181000,6.34518115234375,-0.22690115869045258,-0.3028011918067932,-1.4444974660873413
1687149081624236300,6.355236328125,-0.05219791829586029,0.1339569091796875,-1.8162745237350464
1687149081634291200,6.365291259765625,0.029827382415533066,0.40027281641960144,-1.9920430183410645
1687149081644346400,6.375346435546875,0.046871598809957504,0.4865591824054718,-1.981390357017517
1687149081654401300,6.3854013671875,0.012783164158463478,0.3651190996170044,-1.7896429300308228
1687149081664456400,6.39545654296875,-0.05752423778176308,0.06684529036283493,-1.4381059408187866
1687149081674511400,6.405511474609375,-0.1267663687467575,-0.237820103764534,-0.988564670085907
1687149081684566500,6.41556640625,-0.1502021700143814,-0.43808966875076294,-0.5017392039299011
1687149081694621400,6.425621337890625,-0.10013478249311447,-0.5020055174827576,-0.04367581009864807
1687149081704676600,6.435676513671875,-0.023435799404978752,-0.4210454523563385,0.28975170850753784
1687149081714731800,6.445731689453125,0.021305272355675697,-0.2878875136375427,0.42610546946525574
1687149081724786700,6.45578662109375,-0.0010652636410668492,-0.1898832470178604,0.377103328704834
1687149081734841900,6.465841796875,-0.12037479132413864,-0.17283903062343597,0.21092219650745392
1687149081744896800,6.475896728515625,-0.3579285740852356,-0.21012325584888458,-0.009587372653186321
1687149081754952000,6.485951904296875,-0.716922402381897,-0.21012325584888458,-0.29401275515556335
1687149081765006800,6.4960068359375,-1.193095326423645,-0.10998847335577011,-0.6317013502120972
1687149081775062000,6.50606201171875,-1.7395755052566528,0.10199899226427078,-0.9811078310012817
1687149081785117000,6.516116943359375,-2.287121057510376,0.43862229585647583,-1.302817463874817
1687149081795172000,6.526172119140625,-2.734531879425049,0.7613971829414368,-1.5478280782699585
1687149081805227000,6.53622705078125,-3.105243444442749,0.96592777967453,-1.659680724143982
1687149081815282200,6.5462822265625,-3.4791510105133057,1.0607362985610962,-1.6266576051712036
1687149081825337300,6.55633740234375,-3.86371111869812,1.0351699590682983,-1.4700638055801392
1687149081835392300,6.566392333984375,-4.241879940032959,0.9680583477020264,-1.2389016151428223
1687149081845447400,6.576447509765625,-4.582764148712158,0.9020119905471802,-0.951280415058136
1687149081855502300,6.58650244140625,-4.86292839050293,0.8082687854766846,-0.6231792569160461
1687149081865557500,6.5965576171875,-5.079176902770996,0.6697844862937927,-0.28868645429611206
1687149081875612400,6.6066123046875,-5.262402534484863,0.4908202290534973,0.02024000883102417
1687149081885667600,6.61666748046875,-5.4637370109558105,0.251135915517807,0.30786117911338806
1687149081895722500,6.626722412109375,-5.670398235321045,0.003994738683104515,0.565654993057251
1687149081905777700,6.636777587890625,-5.808882713317871,-0.19734008610248566,0.7893603444099426
1687149081915832800,6.646832763671875,-5.811013221740723,-0.3134538233280182,1.0056089162826538
1687149081925887700,6.6568876953125,-5.653354167938232,-0.3976096510887146,1.1952258348464966
1687149081935943000,6.66694287109375,-5.352949619293213,-0.5179844498634338,1.3006869554519653
1687149081945997800,6.676997802734375,-4.958802223205566,-0.629837155342102,1.3294490575790405
1687149081956053000,6.687052978515625,-4.546545028686523,-0.7129276990890503,1.3060132265090942
1687149081966108000,6.69710791015625,-4.166245937347412,-0.8013445734977722,1.2346405982971191
1687149081976163000,6.7071630859375,-3.8573195934295654,-0.8407593369483948,1.1153310537338257
1687149081986218000,6.717218017578125,-3.591003656387329,-0.7906919121742249,0.9598025679588318
1687149081996273200,6.727273193359375,-3.338536262512207,-0.705470860004425,0.7712509036064148
1687149082006328000,6.737328125,-3.1276140213012695,-0.6585992574691772,0.5720465779304504
1687149082016383000,6.747383056640625,-2.962498188018799,-0.7012097835540771,0.3962780833244324
1687149082026438100,6.757438232421875,-2.8208181858062744,-0.8258456587791443,0.2716422379016876
1687149082036493000,6.7674931640625,-2.713226556777954,-0.9685909748077393,0.19494324922561646
1687149082046548000,6.7775478515625,-2.688725471496582,-1.1241194009780884,0.16831165552139282
1687149082056603100,6.78760302734375,-2.7494454383850098,-1.2711257934570312,0.18961693346500397
1687149082066658000,6.797657958984375,-2.7409234046936035,-1.3904353380203247,0.253532737493515
1687149082076713000,6.807712890625,-2.396843194961548,-1.2466248273849487,0.4143875539302826
1687149082086768000,6.81776806640625,-1.3102742433547974,-0.7342329621315002,0.6892255544662476
1687149082096823000,6.827822998046875,0.8831035494804382,-0.04500738903880119,1.0759162902832031
1687149082106878000,6.8378779296875,4.184355735778809,0.617586612701416,1.6905734539031982
1687149082116933000,6.84793310546875,8.188681602478027,1.0532793998718262,2.4128222465515137
1687149082126988000,6.857988037109375,12.206855773925781,1.421860694885254,2.813361167907715
1687149082137043000,6.86804296875,15.740335464477539,2.32946515083313,2.3339927196502686
1687149082147098000,6.87809814453125,18.55476188659668,3.8900763988494873,0.6732466220855713
1687149082157153000,6.888153076171875,20.16437530517578,5.410207748413086,-2.0069568157196045
1687149082167208200,6.898208251953125,19.812837600708008,5.236569881439209,-4.855471611022949
1687149082177263000,6.90826318359375,17.52252197265625,2.601107597351074,-6.351101875305176
1687149082187318000,6.918318115234375,13.638570785522461,0.03701791167259216,-6.081590175628662
1687149082197373200,6.928373291015625,8.410256385803223,0.10945583879947662,-4.757467269897461
1687149082207428000,6.938427978515625,2.972085475921631,1.6583491563796997,-3.106308698654175
1687149082217483000,6.94848291015625,-0.8042740225791931,1.984319806098938,-1.8141440153121948
1687149082227538200,6.9585380859375,-3.159571886062622,1.1225215196609497,-0.7765771746635437
1687149082237593000,6.968593017578125,-4.650940895080566,0.6463487148284912,0.14807164669036865
1687149082247648000,6.97864794921875,-5.3657331466674805,0.9499488472938538,0.8894951343536377
1687149082257703200,6.988703125,-5.380646705627441,1.4399701356887817,1.4594111442565918
1687149082267758000,6.998758056640625,-5.3998212814331055,1.6082817316055298,2.0474367141723633
1687149082277813000,7.00881298828125,-5.924996376037598,1.3685975074768066,2.723879098892212
1687149082287868200,7.0188681640625,-6.936996936798096,0.7635276913642883,3.4205615520477295
1687149082297923000,7.028923095703125,-8.196138381958008,-0.020506324246525764,4.0053911209106445
1687149082307978000,7.03897802734375,-9.40521240234375,-0.8056056499481201,4.335622787475586
1687149082318033200,7.049033203125,-10.304295539855957,-1.577921748161316,4.35692834854126
1687149082328088000,7.059088134765625,-10.8316011428833,-2.3672821521759033,4.089547157287598
1687149082338143500,7.0691435546875,-11.010564804077148,-2.9574382305145264,3.5931341648101807
1687149082348198700,7.07919873046875,-10.84438419342041,-3.1417288780212402,2.9593024253845215
1687149082358254000,7.089254150390625,-10.491781234741211,-3.163033962249756,2.262619972229004
1687149082368309000,7.09930908203125,-10.094438552856445,-3.2429287433624268,1.582981824874878
1687149082378364000,7.109364013671875,-9.682181358337402,-3.3771519660949707,0.9949562549591064
1687149082388419000,7.119419189453125,-9.081372261047363,-3.7052533626556396,0.5507413148880005
1687149082398474000,7.129473876953125,-8.076828956604004,-3.9491987228393555,0.4623244106769562
1687149082408529000,7.13952880859375,-6.1391143798828125,-3.31217098236084,1.0237183570861816
1687149082418584000,7.149583984375,-2.554502248764038,-1.3552817106246948,2.3478410243988037
1687149082428639000,7.159638916015625,2.634397029876709,0.8647277355194092,3.6687679290771484
1687149082438694000,7.16969384765625,8.1503324508667,2.3923158645629883,4.312187194824219
1687149082448749000,7.1797490234375,13.037761688232422,3.425621509552002,3.9915428161621094
1687149082458804000,7.189803955078125,17.16139793395996,4.68582820892334,2.6876602172851562
1687149082468859000,7.19985888671875,20.361448287963867,6.694915771484375,0.38242965936660767
1687149082478914000,7.2099140625,22.565479278564453,9.174849510192871,-2.734531879425049
1687149082488969000,7.219968994140625,23.425148010253906,10.886728286743164,-6.017674446105957
1687149082499024100,7.230024169921875,22.094633102416992,10.068605422973633,-8.154593467712402
1687149082509079000,7.2400791015625,17.917734146118164,6.5979766845703125,-7.805186748504639
1687149082519134000,7.250134033203125,11.210834503173828,0.7656582593917847,-5.461606502532959
1687149082529189000,7.260189208984375,3.7518584728240967,-1.346759557723999,-0.9747162461280823
1687149082539244000,7.270244140625,-1.6884428262710571,-0.592552900314331,2.1390492916107178
1687149082549299000,7.280298828125,-4.517783164978027,-0.41358861327171326,3.572894334793091
1687149082559354000,7.29035400390625,-5.570263385772705,-1.2412984371185303,3.34279727935791
1687149082569409000,7.300408935546875,-4.888494968414307,-1.0516815185546875,2.485260009765625
1687149082579464000,7.3104638671875,-2.669550657272339,-0.13555480539798737,1.575524926185608
1687149082589519000,7.32051904296875,-0.5294360518455505,0.4972118139266968,0.8372972011566162
1687149082599574000,7.330573974609375,0.2737727463245392,0.8583361506462097,0.4410191476345062
1687149082609629000,7.34062890625,0.2716422379016876,1.166197419166565,0.43143177032470703
1687149082619684000,7.35068408203125,0.10226531326770782,0.9392961859703064,0.716922402381897
1687149082629739000,7.360739013671875,-0.07350318878889084,0.1723063886165619,1.123853087425232
1687149082639794000,7.3707939453125,-0.3472759425640106,-0.7512772083282471,1.5041522979736328
1687149082649849000,7.38084912109375,-0.7020087242126465,-1.522528052330017,1.755554437637329
1687149082659904000,7.390904052734375,-0.9608678221702576,-1.9454376697540283,1.7917734384536743
1687149082669959000,7.400958984375,-0.9832383394241333,-1.899631381034851,1.5851123332977295
1687149082680014000,7.41101416015625,-0.7669898271560669,-1.4863090515136719,1.180312156677246
1687149082690069000,7.421069091796875,-0.4101265072822571,-0.9376983046531677,0.6636592745780945
1687149082700124000,7.4311240234375,-0.026631591841578484,-0.39121806621551514,0.10865689069032669
1687149082710179000,7.441178955078125,0.27590328454971313,0.08495477586984634,-0.42504018545150757
1687149082720234000,7.45123388671875,0.39840859174728394,0.3640538454055786,-0.8436887860298157
1687149082730289000,7.461288818359375,0.3344927728176117,0.29694223403930664,-1.0535457134246826
1687149082740344000,7.471343994140625,0.11717899888753891,-0.04713791608810425,-1.058872103691101
1687149082750399000,7.48139892578125,-0.19494324922561646,-0.41891491413116455,-0.9363667368888855
1687149082760454000,7.491453857421875,-0.5091960430145264,-0.6458160877227783,-0.7531414031982422
1687149082770509000,7.501509033203125,-0.7531414031982422,-0.6415550112724304,-0.574177086353302
1687149082780564000,7.51156396484375,-0.8767119646072388,-0.3976096510887146,-0.45912861824035645
1687149082790619100,7.521619140625,-0.8969519734382629,0.009321057237684727,-0.44954127073287964
1687149082800674000,7.531674072265625,-0.9534109830856323,0.383228600025177,-0.5464802384376526
1687149082810729000,7.54172900390625,-1.168594241142273,0.5568665862083435,-0.6945518851280212
1687149082820784000,7.5517841796875,-1.5286533832550049,0.5238434076309204,-0.8159919381141663
1687149082830839000,7.561839111328125,-2.0612852573394775,0.38642439246177673,-0.8554067015647888
1687149082840894000,7.57189404296875,-2.759032726287842,0.27244117856025696,-0.8447540402412415
1687149082850949000,7.58194921875,-3.537740468978882,0.2745717167854309,-0.8202530145645142
1687149082861004000,7.592004150390625,-4.301534652709961,0.3960117697715759,-0.8053393363952637
1687149082871059000,7.602058837890625,-4.995021343231201,0.5781718492507935,-0.8255793452262878
1687149082881114000,7.612114013671875,-5.6480278968811035,0.6783066391944885,-0.875646710395813
1687149082891169000,7.6221689453125,-6.294642925262451,0.6378266215324402,-0.9182572364807129
1687149082901224000,7.632223876953125,-6.924213886260986,0.4876244366168976,-0.9086698889732361
1687149082911279000,7.642279052734375,-7.474955081939697,0.29268118739128113,-0.8245140314102173
1687149082921334000,7.652333984375,-7.951128005981445,0.0870852991938591,-0.6380929350852966
1687149082931389000,7.662388916015625,-8.297338485717773,-0.13662005960941315,-0.377103328704834
1687149082941444000,7.672444091796875,-8.421974182128906,-0.43702441453933716,-0.04367581009864807
1687149082951499000,7.6824990234375,-8.292012214660645,-0.8215845823287964,0.3291664719581604
1687149082961554000,7.692553955078125,-7.980955123901367,-1.2295805215835571,0.6977477073669434
1687149082971609000,7.702609130859375,-7.596395015716553,-1.5086796283721924,1.0066741704940796
1687149082981664000,7.7126640625,-7.200117111206055,-1.6088143587112427,1.2261184453964233
1687149082991719200,7.72271923828125,-6.817687511444092,-1.5917701721191406,1.366733193397522
1687149083001774000,7.732774169921875,-6.445910453796387,-1.582182765007019,1.4221270084381104
1687149083011829200,7.742829345703125,-6.068807125091553,-1.5715302228927612,1.4093438386917114
1687149083021884200,7.75288427734375,-5.678920269012451,-1.4969617128372192,1.3635374307632446
1687149083031939300,7.762939208984375,-5.275185585021973,-1.408544898033142,1.2921648025512695
1687149083041994200,7.772994140625,-4.840558052062988,-1.3062795400619507,1.1771162748336792
1687149083052049400,7.78304931640625,-4.385690212249756,-1.2093405723571777,1.0258488655090332
1687149083062104300,7.793104248046875,-3.9372143745422363,-1.1645994186401367,0.8500803709030151
1687149083072159500,7.803159423828125,-3.5441322326660156,-1.2274500131607056,0.632766604423523
1687149083082214700,7.813214599609375,-3.2373361587524414,-1.3073447942733765,0.37284228205680847
1687149083092269600,7.82326953125,-2.9742159843444824,-1.2775174379348755,0.07776424288749695
1687149083102324700,7.83332470703125,-2.62907075881958,-1.0026793479919434,-0.28549066185951233
1687149083112379600,7.843379638671875,-1.9068219661712646,-0.49880969524383545,-0.6636592745780945
1687149083122434800,7.853434814453125,-0.34088435769081116,0.34381383657455444,-0.9640635848045349
1687149083132489700,7.86348974609375,2.241314649581909,1.145957350730896,-1.0088046789169312
1687149083142545000,7.873544921875,5.740705966949463,1.627456545829773,-0.4569981098175049
1687149083152599800,7.883599853515625,9.859015464782715,1.857553482055664,0.7978824377059937
1687149083162655000,7.893655029296875,13.883581161499023,2.0429093837738037,2.186986207962036
1687149083172710000,7.9037099609375,17.749422073364258,2.5936505794525146,2.9933907985687256
1687149083182765000,7.91376513671875,21.283967971801758,3.738809108734131,2.812295913696289
1687149083192820200,7.9238203125,24.31570816040039,5.817138195037842,1.210139513015747
1687149083202875100,7.933875244140625,26.581523895263672,8.269375801086426,-2.3084263801574707
1687149083212930300,7.943930419921875,26.749835968017578,8.866988182067871,-6.666419982910156
1687149083222985200,7.953985107421875,24.02169418334961,6.153761863708496,-9.47765064239502
1687149083233040400,7.964040283203125,17.16033172607422,4.463188171386719,-9.379646301269531
1687149083243095300,7.97409521484375,8.059784889221191,0.9595362544059753,-7.098917007446289
1687149083253150500,7.984150390625,-0.5709813237190247,0.2798980176448822,-1.4689985513687134
1687149083263205400,7.994205322265625,-5.977194309234619,0.056192658841609955,2.380864143371582
1687149083273260500,8.004260498046875,-7.947932243347168,-1.2349069118499756,3.824296474456787
1687149083283315500,8.0143154296875,-7.9298224449157715,-1.7153407335281372,3.4067130088806152
1687149083293370600,8.02437060546875,-6.82834005355835,-0.26338642835617065,2.396843194961548
1687149083303425800,8.03442578125,-4.656267166137695,1.3313132524490356,1.4466279745101929
1687149083313480700,8.044480712890625,-2.8059043884277344,1.5209301710128784,0.8575372099876404
1687149083323535600,8.05453564453125,-2.6865949630737305,1.3611406087875366,0.7563371658325195
1687149083333590800,8.0645908203125,-3.655984878540039,1.2865722179412842,1.0482194423675537
1687149083343645700,8.074645751953126,-5.040827751159668,0.7582014203071594,1.6927039623260498
1687149083353700600,8.08470068359375,-6.451236724853516,-0.12809795141220093,2.5065653324127197
1687149083363755800,8.094755859375,-7.712508678436279,-0.9877657294273376,3.2234878540039062
1687149083373810700,8.104810791015625,-8.722378730773926,-1.7504944801330566,3.716704845428467
1687149083383865600,8.114865478515625,-9.400951385498047,-2.5004401206970215,3.979825019836426
1687149083393920800,8.124920654296876,-9.709877967834473,-3.201383590698242,4.066111087799072
1687149083403975700,8.1349755859375,-9.718400001525879,-3.5827479362487793,4.012847900390625
1687149083414030600,8.145030517578125,-9.53304386138916,-3.792604923248291,3.8029911518096924
1687149083424085800,8.155085693359375,-9.27738094329834,-3.8831522464752197,3.4610416889190674
1687149083434140700,8.165140625,-8.968454360961914,-3.947068214416504,3.050915002822876
1687149083444195600,8.175195556640626,-8.655266761779785,-4.147337436676025,2.5736770629882812
1687149083454250800,8.185250732421874,-8.429430961608887,-4.556398868560791,2.0570240020751953
1687149083464305700,8.1953056640625,-8.17802906036377,-4.886630535125732,1.4317142963409424
1687149083474360600,8.205360595703125,-7.451519012451172,-4.065312385559082,0.4846949577331543
1687149083484415700,8.215415771484375,-5.277316093444824,-1.4575469493865967,-0.5560676455497742
1687149083494470700,8.225470703125,-1.1600720882415771,1.0511488914489746,-0.9353014826774597
1687149083504525600,8.235525634765626,4.567850589752197,1.900164008140564,-0.4569981098175049
1687149083514580700,8.245580810546874,10.304295539855957,1.6668713092803955,0.28016433119773865
1687149083524635600,8.2556357421875,14.578132629394531,1.7435702085494995,0.5837644934654236
1687149083534690600,8.265690673828125,17.6567440032959,2.8983161449432373,0.21944430470466614
1687149083544745700,8.275745849609375,19.822425842285156,4.899946212768555,-0.9150614738464355
1687149083554800600,8.285800537109376,21.733509063720703,7.090128421783447,-2.703639030456543
1687149083564855600,8.29585546875,23.235530853271484,7.9572529792785645,-4.810730457305908
1687149083574910700,8.30591064453125,22.471736907958984,7.16682767868042,-5.857884883880615
1687149083584965600,8.315965576171875,16.97284507751465,6.158022880554199,-5.499956130981445
1687149083595020800,8.326020751953125,8.376168251037598,2.676741123199463,-5.273055076599121
1687149083605075700,8.33607568359375,-0.2727074921131134,0.6186518669128418,-4.212052345275879
1687149083615130600,8.346130615234374,-5.751358509063721,-0.8354330062866211,-2.3180136680603027
1687149083625185800,8.356185791015625,-7.514369487762451,-1.9060230255126953,-0.1406148076057434
1687149083635240700,8.36624072265625,-7.140462398529053,-2.2575600147247314,1.2921648025512695
1687149083645295600,8.376295654296875,-5.637375354766846,-1.8346502780914307,1.7321187257766724
1687149083655350800,8.386350830078126,-3.136136054992676,-1.0090709924697876,1.641571283340454
1687149083665405700,8.39640576171875,-0.49641284346580505,-0.19201377034187317,1.3528847694396973
1687149083675460600,8.406460693359374,0.7989477515220642,0.39068543910980225,0.951280415058136
1687149083685515800,8.416515869140625,1.0322405099868774,0.9265130758285522,0.6519413590431213
1687149083695570700,8.42657080078125,0.9086698889732361,1.0713889598846436,0.5411539077758789
1687149083705625600,8.43662548828125,0.6625939607620239,0.693220317363739,0.6913561224937439
1687149083715680800,8.4466806640625,0.31744855642318726,0.14247901737689972,1.039697289466858
1687149083725735700,8.456735595703124,-0.1267663687467575,-0.28256118297576904,1.379516363143921
1687149083735790600,8.46679052734375,-0.5837644934654236,-0.5755086541175842,1.6021565198898315
1687149083745845800,8.476845703125,-0.9193225502967834,-0.7597993016242981,1.7033565044403076
1687149083755900700,8.486900634765625,-1.081242561340332,-0.8578035235404968,1.689508080482483
1687149083765955600,8.49695556640625,-1.076981544494629,-0.8759130239486694,1.54995858669281
1687149083776010800,8.5070107421875,-0.9139962196350098,-0.7821698188781738,1.3209269046783447
1687149083786065700,8.517065673828125,-0.6562023758888245,-0.6522076725959778,1.0535457134246826
1687149083796120600,8.52712060546875,-0.3707117438316345,-0.5265065431594849,0.8032087683677673
1687149083806175700,8.53717578125,-0.11717899888753891,-0.38589176535606384,0.5890907645225525
1687149083816230700,8.547230712890626,0.10120004415512085,-0.237820103764534,0.3994738757610321
1687149083826285600,8.55728564453125,0.2929475009441376,-0.13022847473621368,0.22796641290187836
1687149083836340700,8.5673408203125,0.4175833463668823,-0.09827057272195816,0.07456845790147781
1687149083846395600,8.577395751953125,0.47191178798675537,-0.13129374384880066,-0.07669898122549057
1687149083856450600,8.587450439453125,0.5209138989448547,-0.1387505829334259,-0.23222747445106506
1687149083866505700,8.597505615234375,0.611461341381073,-0.1430116444826126,-0.3568633198738098
1687149083876560600,8.607560546875,0.6476802825927734,-0.17816534638404846,-0.4378233551979065
1687149083886615600,8.617615478515624,0.4953475892543793,-0.1909485012292862,-0.5123918056488037
1687149083896670700,8.627670654296875,0.2311622053384781,-0.10679268091917038,-0.6040045022964478
1687149083906725600,8.6377255859375,-0.054328445345163345,0.0913463607430458,-0.6881603002548218
1687149083916780800,8.64778076171875,-0.366450697183609,0.3118559420108795,-0.7222487330436707
1687149083926835700,8.657835693359376,-0.7179877161979675,0.45566651225090027,-0.7009434700012207
1687149083936890600,8.667890625,-1.058872103691101,0.5185170769691467,-0.6434192657470703
1687149083946945800,8.67794580078125,-1.3752553462982178,0.5099949836730957,-0.5411539077758789
1687149083957000700,8.688000732421875,-1.7363797426223755,0.4460791349411011,-0.4101265072822571
1687149083967055600,8.6980556640625,-2.172072649002075,0.43329599499702454,-0.30466538667678833
1687149083977110800,8.70811083984375,-2.6375927925109863,0.5547360181808472,-0.2631201148033142
1687149083987165700,8.718165771484376,-3.1233530044555664,0.8349003791809082,-0.3067959249019623
1687149083997220600,8.728220703125,-3.616569995880127,1.2109384536743164,-0.4197138845920563
1687149084007275800,8.73827587890625,-3.99899959564209,1.5251911878585815,-0.5667202472686768
1687149084017330700,8.74833056640625,-4.242945194244385,1.6924376487731934,-0.695617139339447
1687149084027385600,8.758385498046875,-4.424039840698242,1.7425049543380737,-0.7467498183250427
1687149084037440800,8.768440673828126,-4.538022994995117,1.6892417669296265,-0.6945518851280212
1687149084047495700,8.77849560546875,-4.5518717765808105,1.5741933584213257,-0.5368928909301758
1687149084057550600,8.788550537109375,-4.503934860229492,1.4282522201538086,-0.28442537784576416
1687149084067605500,8.79860546875,-4.459193706512451,1.2652668952941895,0.0031957910396158695
1687149084077660400,8.808660400390625,-4.4528021812438965,1.1129342317581177,0.2812296152114868
1687149084087715300,8.81871533203125,-4.468780994415283,0.8945551514625549,0.5134570598602295
1687149084097770200,8.828770263671874,-4.580633640289307,0.5653886795043945,0.6913561224937439
1687149084107825400,8.838825439453124,-4.773446559906006,0.19148114323616028,0.8490151166915894
1687149084117880300,8.84888037109375,-4.9438886642456055,-0.18668745458126068,0.9779120087623596
1687149084127935200,8.858935302734375,-5.099417209625244,-0.5179844498634338,1.0993521213531494
1687149084137990100,8.868990234375,-5.259206771850586,-0.818388819694519,1.2197269201278687
1687149084148045000,8.879045166015626,-5.396625518798828,-1.0879005193710327,1.327318549156189
1687149084158100000,8.889099853515624,-5.461606502532959,-1.242363691329956,1.3954954147338867
1687149084168155000,8.89915478515625,-5.426453113555908,-1.2540816068649292,1.4008216857910156
1687149084178210000,8.9092099609375,-5.361472129821777,-1.2167973518371582,1.3219921588897705
1687149084188265000,8.919264892578125,-5.441366672515869,-1.2817784547805786,1.1142657995224
1687149084198319900,8.92931982421875,-5.653354167938232,-1.1060099601745605,0.8724509477615356
1687149084208374800,8.939374755859374,-5.708747863769531,-0.8791088461875916,0.7371624112129211
1687149084218429700,8.9494296875,-5.618200302124023,-0.9078709483146667,0.7819035053253174
1687149084228484600,8.959484619140625,-5.360406875610352,-1.38404381275177,1.0162614583969116
1687149084238539500,8.96953955078125,-4.411256790161133,-2.035985231399536,1.3859080076217651
1687149084248594700,8.9795947265625,-2.45649790763855,-2.3172147274017334,1.9845861196517944
1687149084258649600,8.989649658203126,0.45486757159233093,-2.0477030277252197,2.788860321044922
1687149084268704500,8.99970458984375,4.03628396987915,-1.1432942152023315,3.6389405727386475
1687149084278759400,9.009759521484375,7.814774036407471,0.4641886353492737,4.23655366897583
1687149084288814300,9.019814453125,11.466497421264648,2.453035831451416,4.402734756469727
1687149084298869200,9.029869140625,14.85616683959961,4.160653591156006,3.8381450176239014
1687149084308924200,9.039924072265626,17.893234252929688,5.959883689880371,2.1603546142578125
1687149084318979300,9.049979248046874,20.293272018432617,8.14900016784668,-1.0013477802276611
1687149084329034200,9.0600341796875,21.39475440979004,9.083236694335938,-4.960932731628418
1687149084339089200,9.070089111328125,19.69352912902832,6.824877738952637,-7.848862648010254
1687149084349144000,9.08014404296875,14.960562705993652,3.306312084197998,-8.499738693237305
1687149084359199000,9.090198974609375,8.146071434020996,1.4378396272659302,-8.032088279724121
1687149084369254000,9.10025390625,1.2676637172698975,2.4668843746185303,-7.072285175323486
1687149084379309000,9.11030908203125,-3.243727684020996,3.8261606693267822,-4.69248628616333
1687149084389364000,9.120364013671875,-5.395560264587402,3.786746025085449,-1.3475584983825684
1687149084399419000,9.1304189453125,-6.0048909187316895,1.1171952486038208,1.1696594953536987
1687149084409474000,9.14047412109375,-5.457345485687256,-1.0974878072738647,2.977411985397339
1687149084419529000,9.150529052734376,-4.797947406768799,-1.7174713611602783,4.059719562530518
1687149084429584000,9.160583984375,-4.708465099334717,-1.2572773694992065,4.284490585327148
1687149084439639000,9.17063916015625,-5.086633682250977,-0.4913528561592102,4.048001766204834
1687149084449694000,9.18069384765625,-5.730052947998047,-0.1898832470178604,3.7369449138641357
1687149084459748900,9.190748779296875,-6.616352558135986,-0.5307676196098328,3.5782206058502197
1687149084469804000,9.200803955078126,-7.6070475578308105,-1.2519510984420776,3.577155351638794
1687149084479859000,9.21085888671875,-8.466715812683105,-2.0743346214294434,3.605917453765869
1687149084489913900,9.220913818359374,-9.039827346801758,-2.839193820953369,3.5143046379089355
1687149084499969000,9.230968994140625,-9.304012298583984,-3.4336109161376953,3.2373361587524414
1687149084510024000,9.24102392578125,-9.270989418029785,-3.8149755001068115,2.8304054737091064
1687149084520078800,9.251078857421875,-9.040892601013184,-3.8543901443481445,2.281794786453247
1687149084530134000,9.261134033203126,-8.735161781311035,-3.658381700515747,1.5989607572555542
1687149084540189000,9.27118896484375,-8.353797912597656,-3.2876698970794678,0.8596677780151367
1687149084550243800,9.281243896484375,-7.928757190704346,-3.058638334274292,0.253532737493515
1687149084560299000,9.291299072265625,-7.323687553405762,-2.8370633125305176,-0.026631591841578484
1687149084570354000,9.30135400390625,-5.988912105560303,-2.174469470977783,-0.02450106292963028
1687149084580408800,9.311408935546876,-3.179811954498291,-0.9004141092300415,0.188551664352417
1687149084590464000,9.321464111328124,0.9992172718048096,0.3885549008846283,0.5581981539726257
1687149084600519000,9.331518798828125,5.777989864349365,1.2290478944778442,1.2090742588043213
1687149084610574000,9.341573974609375,10.330926895141602,1.7030901908874512,1.8887124061584473
1687149084620629000,9.35162890625,13.99969482421875,2.4967117309570312,2.033588409423828
1687149084630684000,9.361683837890626,16.821578979492188,3.912446975708008,1.2389016151428223
1687149084640739000,9.371739013671874,18.832796096801758,6.019538402557373,-0.6093307733535767
1687149084650794000,9.3817939453125,20.437082290649414,8.435556411743164,-3.4493236541748047
1687149084660849000,9.391848876953125,22.081850051879883,8.846748352050781,-6.340449333190918
1687149084670904000,9.401904052734375,22.90636444091797,5.756418228149414,-7.792403697967529
1687149084680959000,9.411958984375,21.01765251159668,3.7004594802856445,-6.883733749389648
1687149084691014000,9.422013916015626,14.604764938354492,3.0698235034942627,-5.113265514373779
1687149084701069000,9.432069091796874,6.19237756729126,1.8618144989013672,-4.513522148132324
1687149084711124000,9.4421240234375,-1.7161396741867065,3.9731671810150146,-3.3854079246520996
1687149084721179000,9.452178955078125,-5.4296488761901855,4.746548652648926,-1.805621862411499
1687149084731234000,9.462234130859375,-6.5950469970703125,3.013364553451538,-0.35579806566238403
1687149084741289000,9.4722890625,-6.739923000335693,0.12117373943328857,0.17150744795799255
1687149084751343900,9.48234375,-5.847232341766357,-1.9401113986968994,0.32277488708496094
1687149084761399000,9.49239892578125,-3.9766292572021484,-2.1339893341064453,1.198421597480774
1687149084771454000,9.502453857421875,-1.562741756439209,-1.346759557723999,2.4788684844970703
1687149084781508900,9.5125087890625,-0.061785291880369186,-0.3454117476940155,3.4258878231048584
1687149084791564000,9.52256396484375,0.47297704219818115,0.10945583879947662,3.9372143745422363
1687149084801619000,9.532618896484376,0.716922402381897,-0.007723161485046148,4.2493367195129395
1687149084811673900,9.542673828125,0.7723161578178406,-0.5605949759483337,4.458128452301025
1687149084821729000,9.55272900390625,0.5113265514373779,-1.408544898033142,4.446410655975342
1687149084831784000,9.562783935546875,0.011717899702489376,-2.1925787925720215,4.12896203994751
1687149084841838800,9.5728388671875,-0.5368928909301758,-2.6538381576538086,3.546262741088867
1687149084851894000,9.58289404296875,-0.9736509919166565,-2.621880054473877,2.7515759468078613
1687149084861949000,9.592948974609374,-1.2186615467071533,-2.2682125568389893,1.8397103548049927
1687149084872003800,9.60300390625,-1.2815121412277222,-1.6162712574005127,0.9395625591278076
1687149084882059000,9.61305908203125,-1.190964698791504,-0.772582471370697,0.1416800618171692
1687149084892114000,9.623114013671875,-0.9928256869316101,-0.06524740159511566,-0.46765074133872986
1687149084902168800,9.6331689453125,-0.7126613855361938,0.2980075180530548,-0.8852340579032898
1687149084912224000,9.64322412109375,-0.44954127073287964,0.3033338189125061,-1.1110700368881226
1687149084922279000,9.65327880859375,-0.2961432933807373,0.09241162240505219,-1.1590068340301514
1687149084932333800,9.663333740234375,-0.2396843135356903,-0.1621863842010498,-1.081242561340332
1687149084942388700,9.673388671875,-0.24394537508487701,-0.36778226494789124,-0.9310404062271118
1687149084952444000,9.68344384765625,-0.28975170850753784,-0.4913528561592102,-0.7403582334518433
1687149084962498800,9.693498779296876,-0.3344927728176117,-0.4487423002719879,-0.6093307733535767
1687149084972553700,9.7035537109375,-0.42184439301490784,0.015712639316916466,-0.552871823310852
1687149084982608600,9.713608642578125,-0.3430148959159851,0.1904158741235733,-0.46338969469070435
1687149084992663600,9.72366357421875,-0.15446323156356812,0.040213704109191895,-0.2876211702823639
1687149085002718500,9.733718505859375,-0.046871598809957504,-0.2804306447505951,-0.09587372839450836
1687149085012773400,9.7437734375,-0.06391581892967224,-0.629837155342102,0.11930952966213226
1687149085022828500,9.75382861328125,-0.18961693346500397,-0.772582471370697,0.3195790946483612
1687149085032883500,9.763883544921875,-0.45912861824035645,-0.6170539855957031,0.43995389342308044
1687149085042938400,9.7739384765625,-0.9012130498886108,-0.29640960693359375,0.45380231738090515
1687149085052993300,9.7839931640625,-1.4721943140029907,0.021038956940174103,0.33236226439476013
1687149085063048200,9.794048095703126,-2.019739866256714,0.204264298081398,0.11078742146492004
1687149085073103000,9.80410302734375,-2.4586284160614014,0.34381383657455444,-0.12996216118335724
1687149085083158000,9.814157958984374,-2.7963171005249023,0.4684496819972992,-0.23435799777507782
1687149085093213200,9.824213134765625,-3.1467888355255127,-0.02263685315847397,-0.2972085475921631
1687149085103268000,9.83426806640625,-3.5100436210632324,-0.2047969400882721,-0.20026956498622894
1687149085113323000,9.844322998046875,-3.898864984512329,-0.42743703722953796,-0.13528847694396973
1687149085123378000,9.8543779296875,-4.322839736938477,-0.3795001804828644,-0.042610544711351395
1687149085133432800,9.864432861328124,-4.741488456726074,-0.21012325584888458,-0.0021305272821336985
1687149085143487700,9.87448779296875,-5.1814422607421875,-0.14940322935581207,-0.03515370190143585
1687149085153542700,9.884542724609375,-5.659745693206787,-0.2761695981025696,-0.11504847556352615
1687149085163597800,9.894597900390625,-6.178529262542725,-0.5307676196098328,-0.26098960638046265
1687149085173652700,9.90465283203125,-6.702638626098633,-0.6862961053848267,-0.43462756276130676
1687149085183707600,9.914707763671874,-7.146853923797607,-0.7118624448776245,-0.574177086353302
1687149085193762600,9.924762451171874,-7.461106777191162,-0.748081386089325,-0.6636592745780945
1687149085203817500,9.9348173828125,-7.6326141357421875,-0.7534077167510986,-0.7307708859443665
1687149085213872400,9.944872314453125,-7.698660373687744,-0.6330329179763794,-0.7904255986213684
1687149085223927300,9.95492724609375,-7.730618476867676,-0.4625907242298126,-0.8096003532409668
1687149085233982500,9.964982421875,-7.667767524719238,-0.5179844498634338,-0.7424887418746948
1687149085244037400,9.975037353515624,-7.329013824462891,-0.8684561848640442,-0.5571328997612
1687149085254092300,9.98509228515625,-6.804903984069824,-1.2860394716262817,-0.2780338227748871
1687149085264147200,9.995147216796875,-6.224335670471191,-1.61946702003479,0.050067391246557236
1687149085274202000,10.0052021484375,-5.677855014801025,-1.8399766683578491,0.48256441950798035
1687149085284257000,10.015257080078126,-5.311404705047607,-1.9475682973861694,1.0982868671417236
1687149085294312000,10.02531201171875,-5.0280442237854,-2.235189437866211,1.9036260843276978
1687149085304367000,10.0353671875,-4.5316314697265625,-2.6591644287109375,2.7845990657806396
1687149085314422000,10.045422119140625,-3.512174129486084,-2.870086669921875,3.4493236541748047
1687149085324477000,10.055476806640625,-1.520131230354309,-2.3427810668945312,3.8413407802581787
1687149085334531800,10.06553173828125,1.83544921875,-0.9536772966384888,4.261054515838623
1687149085344586800,10.075586669921876,6.005956172943115,0.638891875743866,4.723379135131836
1687149085354641700,10.0856416015625,10.392711639404297,1.9353177547454834,4.9534759521484375
1687149085364696600,10.095696533203125,14.754966735839844,3.222156286239624,4.3281660079956055
1687149085374751500,10.10575146484375,19.109764099121094,5.282376289367676,2.5289359092712402
1687149085384806700,10.115806640625,23.146047592163086,8.023299217224121,-0.36858120560646057
1687149085394861600,10.125861572265626,26.36634063720703,11.080606460571289,-4.266380786895752
1687149085404916500,10.13591650390625,27.386863708496094,14.52566909790039,-9.253945350646973
1687149085414971400,10.145971435546874,24.327425003051758,15.976557731628418,-15.172550201416016
1687149085425026300,10.1560263671875,15.053240776062012,14.164544105529785,-18.363014221191406
1687149085435081200,10.166081298828125,2.315883159637451,8.853139877319336,-15.903321266174316
1687149085445136100,10.17613623046875,-6.75590181350708,-0.44661179184913635,-4.856536865234375
1687149085455191300,10.18619140625,-9.479781150817871,-6.090378761291504,7.169224262237549
1687149085465246200,10.19624609375,-8.34101390838623,-7.915174961090088,12.595677375793457
1687149085475301000,10.206301025390625,-6.476802825927734,-6.878673553466797,11.71576976776123
1687149085485356000,10.21635595703125,-4.561459064483643,-3.3537163734436035,8.577503204345703
1687149085495411000,10.226410888671875,-2.7451844215393066,0.17763271927833557,4.555067539215088
1687149085505465900,10.2364658203125,-2.1070914268493652,2.1142818927764893,1.0322405099868774
1687149085515520800,10.246520751953126,-2.5076305866241455,2.900446653366089,-0.8500803709030151
1687149085525576000,10.256575927734374,-3.6346795558929443,3.013364553451538,-1.0673941373825073
1687149085535630800,10.266630859375,-4.990760326385498,2.284724235534668,-0.017044218257069588
1687149085545685800,10.276685791015625,-6.17959451675415,1.0724542140960693,1.738510251045227
1687149085555740700,10.28674072265625,-7.173485279083252,-0.08548741042613983,3.4695637226104736
1687149085565795600,10.296795654296876,-7.938344478607178,-1.2828437089920044,4.673311710357666
1687149085575850500,10.3068505859375,-8.42623519897461,-2.5899221897125244,5.236835956573486
1687149085585905400,10.316905517578125,-8.63396167755127,-3.674360513687134,5.268794059753418
1687149085595960600,10.326960693359375,-8.58069896697998,-4.203796863555908,4.9630632400512695
1687149085606015500,10.337015380859375,-8.349535942077637,-4.262386322021484,4.395277976989746
1687149085616070400,10.3470703125,-7.979889869689941,-4.301800727844238,3.605917453765869
1687149085626125300,10.357125244140626,-7.577220439910889,-4.394478797912598,2.6812686920166016
1687149085636180200,10.36718017578125,-7.275750637054443,-4.324171543121338,1.738510251045227
1687149085646235100,10.377235107421875,-7.077611446380615,-3.8501291275024414,0.8351666927337646
1687149085656290000,10.3872900390625,-6.696247100830078,-2.666621208190918,-0.014913691207766533
1687149085666345200,10.39734521484375,-5.352949619293213,-0.4583296775817871,-0.8138614296913147
1687149085676400000,10.407400146484376,-2.082590341567993,2.08658504486084,-1.30707848072052
1687149085686455000,10.417455078125,3.0690245628356934,2.895120143890381,-1.4636722803115845
1687149085696510000,10.427510009765625,8.537022590637207,1.9885809421539307,-0.9981520175933838
1687149085706564900,10.43756494140625,12.844948768615723,1.304681658744812,-0.21731378138065338
1687149085716619800,10.447619873046875,15.886276245117188,1.9022945165634155,0.15659375488758087
1687149085726674700,10.4576748046875,17.99123764038086,3.2349393367767334,-0.06711161136627197
1687149085736729900,10.467729736328126,19.488998413085938,4.763592720031738,-0.7531414031982422
1687149085746784800,10.47778466796875,19.88101577758789,5.820334434509277,-1.562741756439209
1687149085756839700,10.487839599609375,18.144636154174805,5.192893981933594,-1.969672441482544
1687149085766894600,10.49789453125,13.922995567321777,2.3305306434631348,-1.448758602142334
1687149085776949500,10.507949462890625,7.304512977600098,-1.2061448097229004,-0.4048001766204834
1687149085787004700,10.518004638671876,0.5709813237190247,-2.492983341217041,0.6231792569160461
1687149085797059600,10.5280595703125,-3.8956692218780518,-1.0889657735824585,1.2815121412277222
1687149085807114500,10.538114501953125,-5.906887054443359,0.24580958485603333,1.1174615621566772
1687149085817169700,10.548169677734375,-5.961215496063232,0.9297088384628296,0.3163833022117615
1687149085827224600,10.558224609375,-4.478368282318115,1.2088079452514648,-0.6593981981277466
1687149085837279500,10.568279541015626,-2.5513064861297607,0.873249888420105,-1.3954954147338867
1687149085847334700,10.578334716796874,-1.3390363454818726,0.24900537729263306,-1.617070198059082
1687149085857389600,10.5883896484375,-0.9874994158744812,0.1009337306022644,-1.2889690399169922
1687149085867444500,10.598444580078125,-1.0503499507904053,0.35766226053237915,-0.5251749753952026
1687149085877499600,10.608499755859375,-1.161137342453003,0.5419528484344482,0.4431496858596802
1687149085887554600,10.618554443359375,-1.1174615621566772,0.2798980176448822,1.3432974815368652
1687149085897609500,10.628609375,-0.8468846082687378,-0.35712963342666626,2.033588409423828
1687149085907664600,10.63866455078125,-0.45486757159233093,-1.0218541622161865,2.4820642471313477
1687149085917719600,10.648719482421875,-0.14487585425376892,-1.4990922212600708,2.684464454650879
1687149085927774500,10.6587744140625,0.018109481781721115,-1.7281239032745361,2.6354622840881348
1687149085937829600,10.66882958984375,0.11398320645093918,-1.6972312927246094,2.3893864154815674
1687149085947884500,10.678884521484376,0.2311622053384781,-1.4969617128372192,2.022935628890991
1687149085957940000,10.68893994140625,0.44847598671913147,-1.225319504737854,1.587242841720581
1687149085967995000,10.698994873046875,0.784034013748169,-0.9057404398918152,1.1334404945373535
1687149085978049800,10.7090498046875,1.1632678508758545,-0.5499423742294312,0.6817687153816223
1687149085988105000,10.71910498046875,1.4934996366500854,-0.16857796907424927,0.24607589840888977
1687149085998160000,10.729159912109376,1.755554437637329,0.18935060501098633,-0.13848426938056946
1687149086008214800,10.73921484375,1.9046913385391235,0.4780370593070984,-0.4569981098175049
1687149086018269700,10.749269775390625,1.8450366258621216,0.6804371476173401,-0.7126613855361938
1687149086028324600,10.75932470703125,1.5946996212005615,0.7528750896453857,-0.905474066734314
1687149086038379500,10.769379638671875,1.2580763101577759,0.6868287324905396,-1.0279793739318848
1687149086048434400,10.779434326171875,0.9022783041000366,0.45566651225090027,-1.0759162902832031
1687149086058489600,10.789489501953126,0.5507413148880005,0.22663484513759613,-1.0897647142410278
1687149086068544500,10.79954443359375,0.26951169967651367,0.15100112557411194,-1.0993521213531494
1687149086078599400,10.809599365234375,0.10120004415512085,0.18402428925037384,-1.0833730697631836
1687149086088654300,10.819654296875,0.019174745306372643,0.27670222520828247,-1.0322405099868774
1687149086098709200,10.829709228515625,-0.010652636177837849,0.4109254479408264,-0.9566067457199097
1687149086108764200,10.83976416015625,-0.029827382415533066,0.580302357673645,-0.8873646259307861
1687149086118819000,10.849819091796874,-0.03621896356344223,0.7209171652793884,-0.829840362071991
1687149086128874200,10.859874267578125,-0.0703074038028717,0.7805719375610352,-0.7765771746635437
1687149086138929200,10.86992919921875,-0.17150744795799255,0.7400919198989868,-0.7307708859443665
1687149086148984000,10.879984130859375,-0.32170963287353516,0.6378266215324402,-0.695617139339447
1687149086159039000,10.8900390625,-0.46765074133872986,0.5579318404197693,-0.6551371216773987
1687149086169094000,10.900093994140626,-0.6178529262542725,0.517451822757721,-0.5976129174232483
1687149086179148800,10.910148681640624,-0.7797729969024658,0.5685844421386719,-0.52837073802948
1687149086189203700,10.92020361328125,-0.9843035936355591,0.7635276913642883,-0.452737033367157
1687149086199258600,10.930258544921875,-1.3507542610168457,1.1246521472930908,-0.3920170068740845
1687149086209313800,10.940313720703125,-1.8162745237350464,1.5049512386322021,-0.31318750977516174
1687149086219368700,10.95036865234375,-2.33612322807312,1.7339829206466675,-0.20026956498622894
1687149086229423600,10.960423583984374,-2.962498188018799,1.6839154958724976,-0.012783164158463478
1687149086239478500,10.970478515625,-3.6591806411743164,1.3409006595611572,0.2588590681552887
1687149086249533400,10.980533447265625,-4.373972415924072,0.7528750896453857,0.5688507556915283
1687149086259588400,10.99058837890625,-5.062132835388184,0.029561065137386322,0.8884298801422119
1687149086269643300,11.000643310546875,-5.713008880615234,-0.7203845381736755,1.1824426651000977
1687149086279698400,11.010698486328126,-6.331927299499512,-1.4032185077667236,1.4178658723831177
1687149086289753300,11.02075341796875,-6.882668495178223,-1.9113492965698242,1.5488933324813843
1687149086299808300,11.030808349609375,-7.365232944488525,-2.1925787925720215,1.5595459938049316
1687149086309863200,11.04086328125,-7.766837120056152,-2.2383852005004883,1.4594111442565918
1687149086319918000,11.05091796875,-8.016108512878418,-2.1829915046691895,1.3060132265090942
1687149086329973000,11.060972900390626,-8.071502685546875,-2.1776652336120605,1.1174615621566772
1687149086340028000,11.07102783203125,-7.930887699127197,-2.288452625274658,0.8596677780151367
1687149086350083000,11.0810830078125,-7.6667022705078125,-2.41308856010437,0.5262402296066284
1687149086360138000,11.091137939453125,-7.372689723968506,-2.5387895107269287,0.18429060280323029
1687149086370193000,11.10119287109375,-7.152180194854736,-2.665555953979492,-0.15446323156356812
1687149086380247800,11.111247802734376,-7.060567378997803,-2.8040401935577393,-0.4804339110851288
1687149086390302700,11.121302734375,-7.110634803771973,-2.9510467052459717,-0.7158571481704712
1687149086400357600,11.131357666015624,-7.1852030754089355,-2.8828697204589844,-0.8937562108039856
1687149086410412500,11.14141259765625,-6.903973579406738,-2.225602149963379,-1.0546109676361084
1687149086420467700,11.1514677734375,-5.808882713317871,-0.33795487880706787,-0.9406278133392334
1687149086430522600,11.161522705078125,-3.294860363006592,1.9662103652954102,-0.4367581009864807
1687149086440577500,11.17157763671875,0.9736509919166565,2.9952549934387207,0.309991717338562
1687149086450632400,11.181632568359374,6.343645095825195,2.6533055305480957,1.4231922626495361
1687149086460687400,11.191687255859375,11.459040641784668,2.1142818927764893,2.4671506881713867
1687149086470742300,11.2017421875,15.838339805603027,2.7523748874664307,2.5768728256225586
1687149086480797200,11.211797119140625,19.47941017150879,4.506864070892334,1.5052175521850586
1687149086490852400,11.221852294921876,22.275728225708008,6.665088176727295,-0.6487455368041992
1687149086500907300,11.2319072265625,24.2347469329834,8.774310111999512,-3.699660539627075
1687149086510962200,11.241962158203124,24.47336769104004,10.453166007995605,-7.133005142211914
1687149086521017000,11.25201708984375,21.588632583618164,11.084867477416992,-10.396973609924316
1687149086531072000,11.262072021484375,14.413017272949219,8.986297607421875,-11.881950378417969
1687149086541127000,11.272126953125,5.034435749053955,3.053844451904297,-10.386320114135742
1687149086551181800,11.282181884765626,-2.4288010597229004,-3.916175365447998,-3.874363899230957
1687149086561237000,11.292237060546874,-6.195573329925537,-3.5859436988830566,3.506847858428955
1687149086571292000,11.3022919921875,-6.973215579986572,-2.6442506313323975,6.596112251281738
1687149086581346800,11.312346923828125,-6.024065971374512,-2.2266674041748047,6.051762580871582
1687149086591401700,11.322401611328125,-4.617918014526367,-0.7470161318778992,4.728705406188965
1687149086601456600,11.33245654296875,-3.7763595581054688,0.2990727722644806,3.298056125640869
1687149086611511600,11.342511474609376,-4.0213704109191895,0.5153213143348694,2.3148179054260254
1687149086621566500,11.35256640625,-4.868254661560059,0.3981422781944275,2.1252009868621826
1687149086631621600,11.36262158203125,-5.887712001800537,-0.036485280841588974,2.5917863845825195
1687149086641676500,11.372676513671875,-6.880537986755371,-0.635163426399231,3.3151004314422607
1687149086651731500,11.3827314453125,-7.684812068939209,-1.3211932182312012,3.883951187133789
1687149086661786400,11.392786376953126,-8.209986686706543,-2.0924441814422607,4.124701023101807
1687149086671841300,11.40284130859375,-8.44860553741455,-2.929741382598877,4.044806003570557
1687149086681896200,11.412896240234375,-8.467781066894531,-3.679687023162842,3.6836817264556885
1687149086691951000,11.422951171875,-8.401734352111816,-4.232558727264404,3.1318750381469727
1687149086702005800,11.433005859375,-8.294142723083496,-4.4402852058410645,2.459693670272827
1687149086712060700,11.443060791015625,-8.13754940032959,-4.302865982055664,1.7225313186645508
1687149086722115600,11.453115478515626,-7.938344478607178,-4.077030181884766,1.0237183570861816
1687149086732170500,11.46317041015625,-7.688007831573486,-4.050398826599121,0.41225701570510864
1687149086742225400,11.473225341796875,-7.4792160987854,-4.296474456787109,-0.13528847694396973
1687149086752280300,11.4832802734375,-7.439801216125488,-4.528702259063721,-0.5773729085922241
1687149086762335200,11.493335205078125,-7.52182674407959,-4.575573444366455,-0.8958867192268372
1687149086772390100,11.50339013671875,-7.335405349731445,-3.792604923248291,-1.172855257987976
1687149086782445000,11.513445068359376,-5.9356489181518555,-1.8048229217529297,-1.2793816328048706
1687149086792500000,11.5235,-2.4639546871185303,-0.008788425475358963,-0.997086763381958
1687149086802555000,11.533554931640625,3.0285444259643555,0.6282392144203186,0.023435799404978752
1687149086812609800,11.54360986328125,9.015326499938965,0.7795066833496094,1.721466064453125
1687149086822664700,11.553664794921875,13.944300651550293,1.6189343929290771,3.184072971343994
1687149086832719600,11.5637197265625,18.062610626220703,3.588606834411621,3.690073251724243
1687149086842774500,11.5737744140625,21.31592559814453,6.08558464050293,3.145723581314087
1687149086852829400,11.583829345703125,23.649917602539062,8.820116996765137,1.6383755207061768
1687149086862884000,11.593884033203125,24.48934555053711,10.061148643493652,-0.2972085475921631
1687149086872939000,11.60393896484375,22.308752059936523,6.82913875579834,-1.2921648025512695
1687149086882994000,11.613993896484375,16.337947845458984,1.4048163890838623,-0.48149916529655457
1687149086893048800,11.624048828125,8.807600021362305,-2.651707410812378,1.1920300722122192
1687149086903103700,11.634103759765624,2.530001163482666,-4.208057880401611,2.8857991695404053
1687149086913158700,11.64415869140625,-1.4796512126922607,-3.529484748840332,3.6293532848358154
1687149086923213600,11.654213623046875,-3.3406667709350586,-2.0040271282196045,2.9007129669189453
1687149086933268500,11.6642685546875,-3.322557210922241,-0.1249021589756012,0.9832383394241333
1687149086943323400,11.674323486328126,-2.1454410552978516,1.2929637432098389,-1.4263880252838135
1687149086953378300,11.68437841796875,-0.8500803709030151,1.937448263168335,-3.066894054412842
1687149086963433200,11.69443310546875,-0.18748639523983002,2.1483705043792725,-3.398190975189209
1687149086973488000,11.704488037109375,-0.02769685536623001,2.095107316970825,-2.6258747577667236
1687149086983543300,11.714543212890625,0.07350318878889084,1.681784987449646,-1.1920300722122192
1687149086993598200,11.72459814453125,0.2833601236343384,1.0159951448440552,0.4005391299724579
1687149087003653000,11.734653076171876,0.4708465337753296,0.2671148478984833,1.65009343624115
1687149087013708000,11.7447080078125,0.5091960430145264,-0.43808966875076294,2.3638200759887695
1687149087023763000,11.754762939453125,0.43569281697273254,-0.9440898895263672,2.5576980113983154
1687149087033817900,11.76481787109375,0.2908169627189636,-1.1518163681030273,2.311622142791748
1687149087043872800,11.774872802734375,0.08309056609869003,-1.1550121307373047,1.7576850652694702
1687149087053928000,11.784927978515626,-0.14700637757778168,-0.945155143737793,1.0386320352554321
1687149087063982800,11.79498291015625,-0.32597067952156067,-0.5328981280326843,0.3153180480003357
1687149087074037800,11.805037841796874,-0.40160438418388367,-0.05352949723601341,-0.2876211702823639
1687149087084092700,11.8150927734375,-0.3962780833244324,0.3821633458137512,-0.6988129615783691
1687149087094147600,11.825147705078125,-0.3440801501274109,0.6708498001098633,-0.9353014826774597
1687149087104202500,11.835202392578125,-0.26098960638046265,0.8178561329841614,-1.0546109676361084
1687149087114257400,11.84525732421875,-0.18748639523983002,0.7667235136032104,-1.105743646621704
1687149087124312300,11.855312255859374,-0.1416800618171692,0.4972118139266968,-1.1068089008331299
1687149087134367500,11.865367431640625,-0.13741901516914368,0.11158636957406998,-1.0695246458053589
1687149087144422400,11.87542236328125,-0.1597895473241806,-0.2005358785390854,-1.0109351873397827
1687149087154477300,11.885477294921875,-0.16618113219738007,-0.3645864725112915,-0.9459540843963623
1687149087164532200,11.8955322265625,-0.11717899888753891,-0.3273022472858429,-0.8916256427764893
1687149087174587100,11.905587158203126,-0.012783164158463478,-0.0822916179895401,-0.8692551255226135
1687149087184642000,11.91564208984375,0.11504847556352615,0.26285380125045776,-0.8788425326347351
1687149087194697000,11.925697021484375,0.19920429587364197,0.6452834606170654,-0.9203878045082092
1687149087204752100,11.935752197265625,0.17576849460601807,0.9776456952095032,-0.9938910007476807
1687149087214807000,11.94580712890625,0.042610544711351395,1.0841721296310425,-1.0535457134246826
1687149087224862000,11.955862060546876,-0.22690115869045258,0.8998814821243286,-1.0407625436782837
1687149087234916900,11.965916748046874,-0.6263750195503235,0.5866939425468445,-0.9747162461280823
1687149087244971800,11.9759716796875,-1.0620678663253784,0.4269044101238251,-0.9139962196350098
1687149087255026700,11.986026611328125,-1.448758602142334,0.46525388956069946,-0.8703203797340393
1687149087265081600,11.99608154296875,-1.7449018955230713,0.6612623929977417,-0.8415582776069641
1687149087275136800,12.00613671875,-2.0314576625823975,0.9084035754203796,-0.8255793452262878
1687149087285191700,12.016191650390626,-2.3350579738616943,1.0426267385482788,-0.7872298359870911
1687149087295246600,12.02624658203125,-2.653571844100952,0.948883593082428,-0.7233139872550964
1687149087305301500,12.036301513671875,-3.0445234775543213,0.6026729345321655,-0.5837644934654236
1687149087315356400,12.0463564453125,-3.6133742332458496,0.060453712940216064,-0.33555805683135986
1687149087325411300,12.056411376953125,-4.3633198738098145,-0.5137233734130859,-0.05219791829586029
1687149087335466200,12.06646630859375,-5.251749515533447,-0.9398288726806641,0.18216007947921753
1687149087345521400,12.076521484375,-6.234988212585449,-1.1912310123443604,0.320644348859787
1687149087355576300,12.086576416015625,-7.186268329620361,-1.3020185232162476,0.37816858291625977
1687149087365631200,12.09663134765625,-8.02569580078125,-1.3265196084976196,0.37923386693000793
1687149087375686100,12.10668603515625,-8.689355850219727,-1.3148016929626465,0.36858120560646057
1687149087385741000,12.116740966796876,-9.119722366333008,-1.3179974555969238,0.366450697183609
1687149087395796000,12.1267958984375,-9.273119926452637,-1.3659342527389526,0.3536675274372101
1687149087405851000,12.136850830078124,-9.123983383178711,-1.529984951019287,0.32703593373298645
1687149087415906000,12.146906005859375,-8.700008392333984,-1.7387765645980835,0.3110569715499878
1687149087425961000,12.1569609375,-8.068306922912598,-1.8985661268234253,0.3344927728176117
1687149087436015900,12.167015869140625,-7.307708740234375,-1.9614167213439941,0.39734333753585815
1687149087446070800,12.17707080078125,-6.584394454956055,-1.9283934831619263,0.48149916529655457
1687149087456125700,12.187125732421874,-5.998499393463135,-1.7547554969787598,0.5613939166069031
1687149087466180600,12.1971806640625,-5.538305759429932,-1.5587470531463623,0.6157223582267761
1687149087476235500,12.207235595703125,-5.215530872344971,-1.527854323387146,0.6338318586349487
1687149087486290700,12.217290771484375,-5.07811164855957,-1.6354459524154663,0.602939248085022
1687149087496345600,12.227345703125,-5.101547718048096,-1.736646056175232,0.4857602119445801
1687149087506400500,12.237400390625,-4.778772830963135,-1.6247934103012085,0.12463584542274475
1687149087516455400,12.247455322265624,-3.5441322326660156,-0.8439550995826721,-0.44847598671913147
1687149087526510300,12.25751025390625,-1.4029521942138672,0.23515695333480835,-0.9448888301849365
1687149087536565200,12.267565185546875,1.6735291481018066,1.2993552684783936,-0.9843035936355591
1687149087546620200,12.2776201171875,5.677855014801025,1.9481009244918823,-0.3142527639865875
1687149087556675300,12.28767529296875,9.903756141662598,2.096172571182251,0.7723161578178406
1687149087566730200,12.297730224609374,13.65135383605957,2.463688373565674,1.5073480606079102
1687149087576785200,12.30778515625,16.98456382751465,3.535343647003174,1.2580763101577759
1687149087586840000,12.317840087890625,19.90658187866211,5.334574222564697,-0.2599243223667145
1687149087596895000,12.32789501953125,22.497303009033203,7.383076190948486,-2.996586561203003
1687149087606950000,12.337949951171876,24.111177444458008,8.169240951538086,-6.0496320724487305
1687149087617004800,12.3480048828125,23.627548217773438,6.303964138031006,-8.290946960449219
1687149087627060000,12.35806005859375,18.95743179321289,3.8740975856781006,-9.115461349487305
1687149087637115000,12.368114990234375,9.573524475097656,3.206177234649658,-8.579633712768555
1687149087647169800,12.378169677734375,0.4367581009864807,2.4604926109313965,-6.602504253387451
1687149087657224700,12.388224609375,-4.938562393188477,2.9281435012817383,-1.9313229322433472
1687149087667279600,12.398279541015626,-7.102112770080566,1.140631079673767,2.0314576625823975
1687149087677334500,12.40833447265625,-7.332209587097168,-1.6279891729354858,3.745466947555542
1687149087687389400,12.418389404296875,-6.132722854614258,-2.4844610691070557,4.30686092376709
1687149087697444400,12.4284443359375,-4.396343231201172,-1.6088143587112427,4.470911502838135
1687149087707499500,12.43849951171875,-3.666637420654297,-0.32943278551101685,4.074633598327637
1687149087717554400,12.448554443359376,-3.9265618324279785,0.714525580406189,3.5004563331604004
1687149087727609300,12.458609375,-4.710595607757568,0.9307740926742554,3.170224666595459
1687149087737664300,12.468664306640624,-5.8514933586120605,0.20319904386997223,3.2405319213867188
1687149087747719200,12.47871923828125,-7.1564412117004395,-0.7747129797935486,3.555850028991699
1687149087757774000,12.488774169921875,-8.318643569946289,-1.498026967048645,3.844536542892456
1687149087767829000,12.4988291015625,-9.138896942138672,-1.9560903310775757,3.938279628753662
1687149087777884000,12.5088837890625,-9.569263458251953,-2.3417158126831055,3.7987301349639893
1687149087787938800,12.518938720703124,-9.65768051147461,-2.7529075145721436,3.447193145751953
1687149087797993700,12.52899365234375,-9.540501594543457,-3.1246845722198486,2.9188222885131836
1687149087808048600,12.539048583984375,-9.410538673400879,-3.2898004055023193,2.216813564300537
1687149087818103600,12.549103515625,-9.416930198669434,-3.152381420135498,1.3997564315795898
1687149087828158500,12.559158447265625,-9.578850746154785,-2.7880613803863525,0.5475454926490784
1687149087838213400,12.56921337890625,-9.864341735839844,-2.3161494731903076,-0.2024000883102417
1687149087848268300,12.579268310546874,-10.22866153717041,-2.0349199771881104,-0.6530066132545471
1687149087858323200,12.5893232421875,-10.56421947479248,-2.4418506622314453,-0.6498108506202698
1687149087868378000,12.599378173828125,-10.834796905517578,-3.4229583740234375,-0.2950780391693115
1687149087878433000,12.60943310546875,-10.540783882141113,-3.818171262741089,0.3153180480003357
1687149087888488000,12.619488037109376,-8.662723541259766,-2.7624950408935547,0.9811078310012817
1687149087898542800,12.62954296875,-4.330296516418457,-1.0261151790618896,1.2964258193969727
1687149087908597800,12.63959765625,2.316948413848877,0.8913593292236328,1.714009165763855
1687149087918652700,12.649652587890625,9.513869285583496,2.061018943786621,2.3840601444244385
1687149087928707300,12.659707275390625,15.580546379089355,2.645848512649536,2.593916893005371
1687149087938762200,12.66976220703125,20.466909408569336,3.60884690284729,1.7299880981445312
1687149087948817200,12.679817138671876,24.01104164123535,5.506081581115723,-0.44421494007110596
1687149087958872000,12.6898720703125,26.465410232543945,7.922099590301514,-3.677290201187134
1687149087968927000,12.699927001953125,27.483802795410156,9.198285102844238,-7.120222091674805
1687149087978982000,12.70998193359375,25.661136627197266,7.275484561920166,-9.315730094909668
1687149087989036800,12.720036865234375,20.105785369873047,4.528169631958008,-9.19748592376709
1687149087999091700,12.730091796875,10.814556121826172,2.7374613285064697,-7.460041046142578
1687149088009146600,12.740146728515626,1.193095326423645,1.6530228853225708,-4.121505260467529
1687149088019201500,12.750201416015624,-4.527370452880859,1.0042773485183716,0.43569281697273254
