time ax ay az
618669704191477 -0.899701 9.802796 2.216053 
618669724215592 -0.621835 9.975378 2.462813 
618669744256060 -0.236291 10.080663 2.584847 
618669764280123 0.084646 10.102198 2.731108 
618669784265956 0.273978 10.274780 2.731108 
618669804290123 0.211765 10.118948 2.671287 
618669824341581 -0.085244 10.025628 2.654538 
618669844365696 -0.370289 9.994521 2.568097 
618669864407987 -0.322433 9.905687 2.603989 
618669884432102 -0.166899 10.049556 2.340480 
618669904421790 -0.214756 10.238888 2.218446 
618669924445904 -0.269791 9.975378 2.829214 
618669944470540 -0.360718 9.876974 3.061617 
618669964494654 -0.226720 10.073484 2.853142 
618669984491060 -0.176471 10.123734 2.671287 
618670004515175 -0.281755 10.135697 2.491527 
618670024580071 -0.387338 10.032806 2.280659 
618670044604185 -0.355932 10.056734 2.275873 
618670064626060 -0.250648 10.054341 2.647359 
618670084650175 -0.171685 10.001699 2.781357 
618670104658769 -0.140578 10.104591 2.776572 
618670124682883 -0.183649 10.118948 2.692823 
618670144735696 -0.387338 10.001699 2.613560 
618670164759810 -0.566800 9.867402 2.733501 
618670184778925 -0.741775 9.876974 2.848356 
618670204803040 -0.691526 9.809975 2.843571 
618670224818821 -0.511765 9.915258 2.711965 
618670244842935 -0.226720 10.303494 2.580061 
618670264854602 -0.353540 10.502398 2.745465 
618670284878665 -0.535693 9.762118 2.930011 
618670304908821 -0.794417 9.647263 2.937190 
618670324932935 -0.492622 10.054341 2.800500 
618670344964967 -0.308076 10.173983 2.676073 
618670364989081 -0.176471 10.222138 2.747858 
618670385007050 -0.447159 9.898509 2.913262 
618670405031165 -1.077069 9.469894 3.121437 
618670425075956 -1.371686 9.373882 3.090330 
618670445100071 -0.962214 9.881760 3.111866 
618670465121373 -0.367896 10.006485 3.310769 
618670485145435 -0.658026 9.884152 3.375376 
618670505158717 -1.144068 9.632607 2.987439 
618670525182779 -0.950250 9.833903 2.556133 
618670545203873 -0.631406 10.109377 2.630310 
618670565227987 -0.715454 10.042377 2.884248 
618670585249185 -0.854238 9.879367 3.229413 
618670605273300 -0.878166 9.944272 3.387340 
618670625302050 -0.708275 9.968200 3.166901 
618670645326217 -0.765703 10.039985 2.769393 
618670665343821 -0.902094 10.116555 2.568097 
618670685367987 -0.739382 10.193424 2.707180 
618670705390904 -0.746561 10.250853 2.927619 
618670725415071 -1.182353 9.970592 3.011367 
618670745456060 -1.611267 9.781260 2.853142 
618670765480227 -1.182353 10.030414 2.776572 
618670785517623 -0.787239 10.332209 2.723929 
618670805541790 -1.022034 10.243673 2.570490 
618670825551008 -1.259223 10.051949 2.137090 
618670845575175 -0.748953 10.205389 2.278266 
618670865602623 -0.535693 10.303494 2.465205 
618670885626790 -0.854238 10.289138 2.479563 
618670905655644 -0.406481 10.004092 3.066402 
618670925679810 0.082253 9.783653 3.229413 
618670945699758 -0.145364 9.364311 2.448456 
618670965723925 -0.288933 8.691330 2.065006 
618670985748508 0.518345 8.722437 2.556133 
618671005772675 1.344766 8.530712 2.393421 
618671025796008 0.887139 8.066205 1.868794 
618671045820175 1.797608 8.116454 1.782354 
618671065847675 3.297010 7.927122 2.405385 
618671085871790 3.723531 7.330711 3.052045 
618671105892987 3.929314 7.057631 3.384947 
618671125917154 5.335695 7.000203 3.119044 
618671145951790 5.592027 6.623931 1.897508 
618671165975904 4.046861 5.728118 0.599103 
618671186014446 5.469694 5.028517 1.746461 
618671206038612 7.134500 5.091029 3.169294 
618671226044810 8.107183 5.217849 2.668895 
618671246068977 8.306086 4.985446 1.895115 
618671266103612 8.744271 4.525725 2.393421 
618671286127779 9.920643 4.776971 2.807678 
618671306143977 11.209178 5.550750 2.223231 
618671326168144 11.228620 5.411967 1.650748 
618671346184862 11.068001 4.963911 1.770390 
618671366209081 11.748161 5.148457 2.101197 
618671386254029 12.411870 5.577071 1.940579 
618671406278196 12.421441 5.802296 1.075873 
618671426277987 12.210574 5.718547 0.888934 
618671446302206 12.347264 5.402395 1.528415 
618671466330956 12.696916 5.593821 1.820639 
618671486355071 12.797414 6.092126 1.339383 
618671506373560 12.833306 6.384350 1.260120 
618671526397727 12.694522 6.396314 1.212264 
618671546448300 12.349657 6.487540 1.576571 
618671566472467 11.999706 6.633502 2.132304 
618671586484029 11.324332 6.763014 2.115554 
618671606508196 10.735100 6.801299 2.424528 
618671626514081 9.992428 6.736693 2.848356 
618671646538248 8.909675 6.528218 3.037688 
618671666588196 7.810173 6.329315 3.358626 
618671686612362 6.818348 6.487540 3.265306 
618671706634602 5.335695 6.485147 2.798107 
618671726658769 4.463511 6.588039 3.085545 
618671746667050 3.670889 6.700801 2.692823 
618671766691269 2.480161 6.820442 1.686641 
618671786711060 1.622633 7.177271 1.808675 
618671806735227 -0.341575 6.585646 1.470988 
618671826763612 -1.494019 6.295815 1.159622 
618671846787779 -2.030609 6.664609 2.153840 
618671866805227 -2.983850 6.180960 2.271088 
618671886829446 -3.678666 6.125626 1.978864 
618671906861790 -3.640381 6.588039 2.019542 
618671926885956 -3.767200 5.996414 2.170589 
618671946913196 -5.077569 5.042874 2.347658 
618671966937362 -6.651449 4.535296 2.750251 
618671986959862 -8.450253 3.929015 2.515455 
618672006984029 -10.371690 3.200999 2.666502 
618672027024342 -11.825628 2.479861 2.879463 
618672047048508 -12.632907 2.398506 3.231806 
618672067056425 -12.750155 2.570789 3.284448 
618672087080592 -11.966805 3.042773 3.406482 
618672107113977 -11.315359 3.612863 3.284448 
618672127138144 -11.085349 3.945765 3.023331 
618672147155331 -11.207683 4.182953 2.678466 
618672167179498 -11.298610 4.458427 2.271088 
618672187220435 -10.759626 4.805984 2.508276 
618672207244602 -10.122537 5.153243 2.867499 
618672227268665 -10.297214 5.325526 2.443670 
618672247292831 -10.476974 5.553143 1.741676 
618672267318612 -10.251749 5.854938 1.569393 
618672287342779 -10.108180 6.001199 1.842473 
618672307350956 -10.050453 5.802296 2.429313 
618672327375123 -9.516255 5.752047 2.910869 
618672347377519 -8.421539 5.706583 3.133401 
618672367401685 -7.101599 5.807081 3.624528 
618672387454862 -5.920741 5.799903 3.365804 
618672407479029 -5.058427 5.915058 2.434099 
618672427505123 -3.805485 5.965307 2.062613 
618672447529290 -2.308476 5.854938 1.966900 
618672467537779 -0.911665 5.517251 2.115554 
618672487561946 0.048754 5.306383 1.435095 
618672507580696 1.021436 5.047659 0.934397 
618672527604862 1.579562 4.415356 1.008575 
618672547643560 2.844169 3.902694 1.403989 
618672567667727 4.727021 4.159025 1.986043 
618672587674602 6.296114 4.247559 1.617249 
618672607698769 8.054540 4.571188 1.825425 
618672627730175 9.870094 5.866902 2.714358 
618672647754342 10.519446 6.487540 2.108376 
618672667807675 10.258329 6.650252 1.152443 
618672687831842 10.842776 7.040881 2.172982 
618672707837154 11.700305 7.357032 3.634099 
618672727861321 12.126825 7.426424 3.246163 
618672747877154 12.224931 7.783553 2.273481 
618672767901373 12.248859 7.941479 2.103590 
618672787949810 12.153146 7.649256 2.088934 
618672807974029 12.021242 7.563114 1.942972 
618672827967987 12.047862 7.622935 1.751247 
618672847992206 11.813066 7.447959 1.427917 
618672868043508 11.628520 7.368997 1.219442 
618672888067727 11.563913 7.337890 1.535594 
618672908092935 11.554342 7.510472 1.756033 
618672928117154 11.290833 7.471888 1.502094 
618672948143352 10.840384 7.299604 1.677070 
618672968167571 10.543375 7.258926 2.072184 
618672988189394 10.342078 7.416853 2.335694 
618673008213612 10.104890 7.421638 2.424528 
618673028239967 9.862916 7.486245 2.410171 
618673048264185 9.721740 7.840981 2.410171 
618673068288925 9.355338 7.838588 2.481955 
618673088313144 9.046066 7.639685 2.767000 
618673108333352 8.504690 7.692327 3.154937 
618673128357571 7.781459 7.577471 3.286841 
618673148352050 6.801599 7.184450 3.126223 
618673168376269 5.874679 6.837192 2.740679 
618673188430487 4.616951 6.233602 2.874677 
618673208454706 2.631208 5.431109 3.157330 
618673228482623 0.585344 5.002196 3.253341 
618673248506842 -0.399302 5.045267 3.701098 
618673268527935 -0.650848 5.136493 3.919144 
618673288552154 -1.901098 4.609474 3.217449 
618673308576790 -4.310969 3.584149 2.316551 
618673328601008 -5.707480 3.126522 2.546561 
618673348630383 -6.557829 2.901298 3.885645 
618673368654602 -7.650153 2.300101 4.820042 
618673388675019 -9.375079 1.377967 4.858327 
618673408699237 -11.394322 0.987338 4.403093 
618673428723040 -12.867702 0.975374 4.173083 
618673448747258 -12.915560 0.994517 4.379165 
618673468761581 -12.448360 0.965803 4.702495 
618673488785800 -11.959627 1.535893 5.097908 
618673508806633 -11.710474 2.017449 4.860720 
618673528830852 -11.322537 2.520540 4.592425 
618673548858612 -11.581262 2.779263 4.177868 
618673568882831 -11.710474 2.959024 3.799503 
618673588904342 -11.025529 3.416353 4.269094 
618673608928560 -10.769197 3.670291 4.252046 
618673628964394 -11.051849 3.790231 3.540779 
618673648988665 -11.399108 3.854837 2.893820 
618673669016060 -11.495120 3.960121 3.023331 
618673689040383 -11.408679 3.967300 3.679563 
618673709064446 -11.265110 4.125525 4.383950 
618673729088769 -10.532009 4.377071 4.927719 
618673749074862 -9.418150 4.841877 4.834399 
618673769099185 -8.110173 5.376074 4.525426 
618673789160071 -6.931708 5.821438 3.978965 
618673809184394 -5.417650 6.398707 3.672385 
618673829208769 -3.704987 6.875477 3.643671 
618673849233092 -2.435295 7.282855 2.838785 
618673869255540 -1.668695 7.237391 1.890330 
618673889279862 -1.192224 6.983453 1.456631 
618673909308821 -0.533300 6.353243 1.537987 
618673929333144 0.494417 5.723333 2.125126 
618673949357467 1.955534 5.661119 2.980261 
618673969381790 2.897110 5.368896 2.045863 
618673989402779 3.965505 5.030910 0.888934 
618674009427102 4.490132 4.417749 1.320240 
618674029453821 5.371588 4.008277 1.791925 
618674049478144 7.024430 3.850052 1.981257 
618674069499550 8.574381 4.678865 1.346561 
618674089523821 10.047462 5.787939 0.733101 
618674109549029 10.993824 6.113662 1.303490 
618674129573352 11.158929 5.972486 1.907080 
618674149595279 11.068001 6.065805 1.779961 
618674169619602 11.266905 6.197710 1.423131 
618674189644758 11.357832 6.152246 1.358525 
618674209669081 11.990135 6.454041 1.772782 
618674229691581 12.380763 6.743872 1.705783 
618674249715904 12.344872 6.746264 1.267299 
618674269743717 12.035898 6.676573 1.152443 
618674289768040 11.743376 6.635895 1.317847 
618674309789654 11.360225 6.434898 1.564607 
618674329813977 11.017752 6.317351 1.844866 
618674349840487 11.130215 6.477969 2.223231 
618674369864810 11.223834 6.774978 2.053042 
618674389886165 11.238191 7.110272 1.593321 
618674409910487 11.257333 7.261320 1.442274 
618674429937415 11.154142 7.205986 1.612463 
618674449961737 10.849956 7.290033 1.830509 
618674469981998 10.555339 7.459924 1.811068 
618674490006321 9.779167 7.407281 1.741676 
618674510031842 8.789735 7.024131 2.050649 
618674530056165 7.572985 6.420541 2.074577 
618674550081737 6.293722 6.413363 2.024328 
618674570106060 5.462515 6.767800 2.405385 
618674590126790 4.707879 6.865905 2.125126 
618674610151060 3.191726 6.401100 1.705783 
618674630168925 1.615454 5.802296 2.050649 
618674650193196 0.427119 5.785546 2.719144 
618674670215019 -0.904487 5.694619 2.776572 
618674690239290 -2.138286 5.603692 3.198307 
618674710250487 -2.909672 5.519644 3.766004 
618674730274758 -3.961318 5.081458 3.166901 
618674750307987 -5.201996 4.683651 2.608775 
618674770332258 -6.014060 4.786542 2.999403 
618674790371008 -6.059824 4.693223 3.669992 
618674810395279 -7.144969 4.151846 3.617350 
618674830419654 -8.673085 3.754339 3.298805 
618674850443925 -10.268499 3.591328 3.296412 
618674870466946 -11.772986 3.471687 3.710670 
618674890491217 -11.825628 3.610470 5.138587 
618674910513769 -11.384751 3.823730 5.981758 
618674930538040 -11.784950 3.981956 5.435596 
618674950563196 -11.928520 4.075276 4.944469 
618674970587467 -11.339288 4.245166 5.373383 
618674990613196 -11.149956 4.202096 5.366204 
618675010612883 -11.248360 4.192524 4.791029 
618675030637102 -11.202896 4.249952 4.601996 
618675050686685 -11.214861 4.290929 4.187439 
618675070710956 -11.468799 4.400999 3.754040 
618675090732831 -12.069996 4.264608 3.588636 
618675110757102 -12.580265 4.075276 3.751647 
618675130783560 -11.784950 4.240381 4.424628 
618675150807831 -10.144073 4.609474 5.284549 
618675170831425 -9.049356 4.856234 5.373383 
618675190855696 -8.349754 5.169992 4.546961 
618675210877154 -7.360322 5.289634 3.969394 
618675230901425 -5.650053 5.685048 3.993621 
618675250919654 -3.683451 6.056234 3.739683 
618675270943925 -2.466402 6.334101 2.848356 
618675290975227 -2.260320 6.422934 1.514058 
618675310999498 -2.152643 6.015556 0.742672 
618675331023925 -0.672383 5.859724 1.724926 
618675351048196 0.757927 5.610870 2.829214 
618675371074550 1.380659 4.851448 2.271088 
618675391098821 2.880360 4.398606 1.521237 
618675411130123 4.667201 4.434499 1.511666 
618675431154394 5.462515 4.082455 1.387239 
618675451169342 6.772884 3.967300 0.862613 
618675471193612 8.157432 4.405785 1.044766 
618675491219446 8.475976 4.513462 0.764507 
618675511243665 9.345767 4.882555 0.587139 
618675531265644 10.579268 5.361717 0.927219 
618675551289915 11.724233 6.051448 1.097408 
618675571316008 12.509975 6.698408 1.181157 
618675591340279 13.156936 7.361818 1.360918 
618675611363612 12.850355 7.459924 1.085444 
618675631387883 12.469298 7.158129 1.083051 
618675651413352 12.689736 7.227820 1.320240 
618675671437623 13.087244 7.649256 1.195514 
618675691463040 13.156936 7.812267 0.898505 
618675711487310 13.140185 7.764410 0.802792 
618675731510487 12.941282 7.618149 0.853041 
618675751534758 12.603595 7.622935 0.999003 
618675771557050 12.335299 7.730612 1.114158 
618675791581321 12.078969 7.795517 1.013360 
618675811592987 11.791531 7.805089 1.118944 
618675831617258 11.223834 7.481459 1.494916 
618675851640540 10.284651 7.007381 1.940579 
618675871664810 8.938389 6.643074 2.182553 
618675891692102 7.340582 6.480362 2.364408 
618675911716373 6.384948 6.111269 2.716751 
618675931739915 5.440979 5.670691 2.668895 
618675951764185 4.156931 5.294419 2.414956 
618675971799758 2.774777 4.944768 1.871187 
618675991824029 1.014258 4.693223 1.736890 
618676011812727 -0.605085 4.583153 2.182553 
618676031836998 -1.723730 3.974478 2.568097 
618676051899029 -3.103790 3.679862 2.520241 
618676071923300 -4.438088 4.118347 2.402992 
618676091944029 -5.230711 4.427320 2.235195 
618676111968248 -5.863313 4.494319 2.316551 
618676131995852 -7.003493 4.537689 2.410171 
618676152020123 -8.661120 4.216453 1.887937 
618676172042467 -10.151251 3.871587 2.383850 
618676192066737 -11.818450 3.548257 3.425625 
618676212088300 -12.831811 3.267998 4.357629 
618676232112571 -12.608979 3.462115 5.354240 
618676252126685 -12.237494 3.761517 5.840282 
618676272150904 -12.443575 3.850052 5.399704 
618676292188092 -12.117852 4.063312 5.095516 
618676312212362 -10.639985 4.590331 5.656034 
618676332240383 -9.973883 4.817948 5.660820 
618676352264602 -10.115358 4.887340 4.767101 
618676372283873 -10.120144 4.939982 3.928716 
618676392308144 -10.199107 4.983053 3.497709 
618676412329810 -10.778769 4.841877 3.042474 
618676432354081 -11.384751 4.669294 2.903391 
618676452366529 -11.442478 4.520939 3.262913 
618676472390800 -10.977672 4.695615 3.813860 
618676492427362 -10.285249 4.999803 3.902395 
618676512451633 -9.082855 5.340182 4.060620 
618676532473769 -7.908877 5.859724 4.302594 
618676552498040 -7.353144 6.183353 3.557529 
618676572504654 -6.210571 6.207281 3.128616 
618676592528873 -3.963711 6.106483 3.758825 
618676612572623 -2.169393 6.130412 3.811467 
618676632596894 -1.529911 6.044270 2.688037 
618676652611165 -1.081855 5.723333 0.991825 
618676672635435 0.190229 5.421538 0.596710 
618676692665800 1.500300 5.294419 1.332204 
618676712690071 2.528017 4.904090 1.739283 
618676732691737 3.531806 4.300500 2.141875 
618676752716008 5.232505 4.348357 2.762215 
618676772767623 6.399305 4.762614 1.993221 
618676792791894 5.680561 3.940979 0.002692 
618676812814290 6.217152 2.807977 -0.098106 
618676832838560 9.410374 4.036991 2.558526 
618676852836998 11.575878 5.565107 3.488137 
618676872861269 12.431013 5.646762 2.371886 
618676892918456 13.345968 6.243174 1.521237 
618676912942727 13.614264 6.957132 1.554736 
618676932967362 13.048959 7.009774 2.481955 
618676952991633 12.694522 6.576075 3.195914 
618676973003196 12.306586 6.245566 3.258127 
618676993027467 12.373585 6.509076 2.862713 
618677013054550 12.823734 6.734300 2.417349 
618677033078821 13.197614 6.806085 2.165804 
618677053095540 13.513765 6.973882 2.036292 
618677073119810 13.564014 6.918548 1.787139 
618677093128196 13.013067 6.901798 1.564607 
618677113152467 12.555440 6.633502 1.703391 
618677133196321 12.308979 6.619146 2.110769 
618677153220592 12.162718 6.887441 2.570490 
618677173221425 11.877672 6.846763 2.865106 
618677193245696 11.537593 6.717550 3.231806 
618677213304862 10.852348 6.377172 3.372983 
618677233329133 9.412766 5.749654 3.205485 
618677253344081 7.786245 5.186742 3.191128 
618677273368352 6.514161 5.141279 3.246163 
618677293379967 4.846961 4.762614 2.805285 
618677313404185 3.167798 4.815556 2.371886 
618677333421998 1.622633 4.331607 1.777568 
618677353446217 -1.000499 3.344568 0.941576 
618677373463612 -3.479762 3.085844 0.704387 
618677393487779 -3.561118 3.783053 1.626820 
618677413547467 -2.617449 4.820341 3.054438 
618677433571633 -3.099005 4.702794 2.450849 
618677453585175 -4.545765 4.204488 1.598106 
618677473609342 -6.279963 4.240381 1.945365 
618677493621894 -7.226325 4.065705 2.702394 
618677513646112 -8.313862 4.001099 3.078366 
618677533693717 -9.645767 3.955336 3.037688 
618677553717883 -10.879268 3.581756 3.420839 
618677573702519 -12.014960 3.462115 3.976572 
618677593726737 -12.599407 3.483651 4.427021 
618677613791112 -13.008880 3.610470 5.277370 
618677633815279 -13.147963 3.938586 6.084649 
618677653827519 -12.530016 4.240381 6.587740 
618677673851685 -11.648261 4.681258 6.934998 
618677693868456 -11.808879 4.769793 6.053542 
618677713892675 -12.215958 4.633402 5.267799 
618677733935227 -12.388540 4.326821 5.347061 
618677753959394 -12.570694 4.060919 5.399704 
618677773946269 -12.874882 3.972085 5.313262 
618677793970435 -12.891631 4.051348 5.140979 
618677814031477 -12.213565 4.245166 5.217550 
618677834055644 -11.025529 4.436892 5.215157 
618677854074915 -9.384650 4.578367 4.999504 
618677874099133 -7.674380 4.470391 4.391129 
618677894112779 -5.688338 4.508676 3.923930 
618677914136946 -3.211467 4.861019 3.133401 
618677934144706 -0.442373 5.256134 2.692823 
618677954168925 0.978365 5.773582 2.230410 
618677974225540 0.166301 5.359324 0.841077 
618677994249706 0.156431 4.168596 0.151047 
618678014237623 1.749452 3.993920 1.190728 
618678034261842 3.273082 4.130311 1.722533 
618678054310696 4.192823 3.474079 1.126122 
618678074334915 5.311767 2.865405 1.449452 
618678094345696 7.953743 2.788835 2.105983 
618678114369915 10.382756 3.653541 1.777568 
618678134377362 11.379367 4.669294 0.182154 
618678154401245 12.416656 5.601299 -0.912563 
618678174456401 12.117254 5.256134 -0.922134 
618678194480568 12.514762 5.459823 0.359522 
618678214500776 13.645370 6.499505 1.341775 
618678234524943 13.178471 6.343672 0.723530 
618678254538276 13.065709 6.166603 0.254237 
618678274562443 13.005888 6.015556 0.376271 
618678294602078 12.553046 5.879165 0.273380 
618678314626297 12.471691 6.070591 0.098405 
618678334662964 12.332907 6.017949 -0.208176 
618678354687235 12.474084 6.041877 0.107976 
618678374709787 13.094422 6.252745 0.625424 
618678394734058 13.580764 6.746264 0.766900 
618678414757860 13.408481 6.877870 0.551247 
618678434782078 12.828521 6.913762 0.469591 
618678454795985 12.375978 6.798906 1.135693 
618678474820255 11.580664 6.353243 1.540380 
618678494858068 10.222438 6.087341 1.574178 
618678514882287 8.873783 5.689833 2.000400 
618678534879526 7.738389 5.505287 2.354837 
618678554903797 6.382555 5.526822 1.770390 
618678574954370 5.472086 5.443073 1.607678 
618678594978641 4.106682 5.129314 1.408774 
618678614985360 1.948356 4.513462 0.896112 
618678635009630 -0.015852 4.554439 1.533201 
618678655042547 -1.352543 4.678865 2.086541 
618678675066818 -2.107179 4.537689 1.835295 
618678695096089 -3.956532 4.214060 1.248156 
618678715120308 -5.204389 4.307679 1.315454 
618678735091662 -5.997311 4.274179 1.657927 
618678755115880 -6.531508 4.046562 1.945365 
618678775195255 -7.029814 3.742375 2.666502 
618678795219474 -8.970094 2.427219 2.843571 
618678815242287 -11.178968 1.881058 2.774179 
618678835266505 -12.184851 1.902593 3.353840 
618678855279578 -12.345469 2.091626 4.908576 
618678875287078 -12.678370 2.218745 5.837889 
618678895311297 -12.970594 2.736193 5.595915 
618678915361193 -12.407682 3.586542 5.782854 
618678935385464 -11.301003 4.240381 6.321837 
618678955413068 -11.051849 4.698008 6.501598 
618678975437287 -12.113067 4.753043 5.929115 
618678995457443 -12.996915 4.623831 5.315656 
618679015481662 -13.212568 4.271787 5.229514 
618679035480151 -13.243675 3.950550 5.198407 
618679055504370 -12.462718 3.809374 5.109873 
618679075517808 -10.970493 3.895515 5.560022 
618679095542078 -8.800203 4.245166 5.960222 
618679115602860 -6.996315 4.875376 5.632106 
618679135627078 -6.064609 5.110172 3.871288 
618679155614578 -4.876274 5.222634 1.983650 
618679175638797 -2.679662 5.680262 1.279263 
618679195665724 -1.283151 6.145068 1.015753 
618679215689995 -1.733600 5.680262 0.692423 
618679235728537 -1.759921 4.417749 0.359522 
618679255752755 -0.336790 4.161417 0.725923 
618679275797599 1.328017 4.355536 1.375275 
618679295821818 2.741277 3.222534 1.298705 
618679315848224 4.089932 2.338386 1.456631 
618679335872443 6.660422 2.762514 2.594418 
618679355885828 8.988638 3.761517 2.922833 
618679375910047 11.202000 5.440681 1.856830 
618679395930516 12.519547 6.204888 1.382453 
618679415954735 13.005888 6.302994 1.583750 
618679435980568 13.523336 6.616753 2.752643 
618679456004787 14.026427 6.865905 3.464209 
618679476025568 14.361721 7.060023 2.807678 
618679496049787 14.826528 7.263712 1.624427 
618679516075151 15.121143 7.122237 0.869791 
618679536099422 15.023038 7.462317 0.314058 
618679556139526 14.656338 7.452745 -0.332901 
618679576163745 13.760525 6.794121 -0.423829 
618679596187026 12.914961 6.324529 0.335593 
618679616211245 12.186646 6.485147 0.922433 
618679636201505 11.767603 6.763014 0.831506 
618679656225724 11.015359 6.585646 1.097408 
618679676286505 10.208080 5.651548 1.854438 
618679696310724 9.132506 5.333004 2.254338 
618679716290724 8.430512 5.708976 2.067399 
618679736314995 7.034001 5.510072 1.643570 
618679756340933 5.472086 5.141279 1.653141 
618679776365203 3.249154 4.178167 1.629213 
618679796396662 1.979463 4.235595 1.916651 
618679816420933 1.105185 4.357928 1.456631 
618679836448276 0.444168 4.223631 0.795614 
618679856472547 -0.473480 4.381856 1.202693 
618679876507495 -1.869991 3.543471 1.770390 
618679896531818 -3.700201 2.396113 1.823032 
618679916545255 -5.736194 2.062912 1.775175 
618679936569578 -6.806982 1.881058 2.558526 
618679956589526 -7.820343 1.121636 3.583850 
618679976625203 -10.469795 -0.358923 4.070191 
618679996649474 -13.241282 -0.993620 4.489234 
618680016680464 -14.570794 -1.508675 4.872684 
618680036704787 -15.346966 -1.717149 5.023432 
618680056710516 -15.483357 -1.558924 5.167301 
618680076734839 -15.306289 -1.333699 5.430810 
618680096766089 -14.625830 -0.921835 5.749355 
618680116790360 -13.423436 -0.131306 6.187840 
618680136823797 -12.989737 0.369392 6.326623 
618680156848120 -12.984951 0.843769 6.055935 
618680176873276 -12.956237 1.234098 5.629714 
618680196897599 -12.436397 1.490429 5.593522 
618680216922026 -11.871092 1.792224 5.679963 
618680236946349 -11.768201 2.050948 5.056931 
618680256941662 -11.969198 2.144567 4.515555 
618680276965985 -11.650654 2.158924 4.223332 
618680297019630 -10.992029 2.283351 4.206582 
618680317043953 -10.776376 2.347957 3.964608 
618680337068016 -10.000204 2.580360 3.967001 
618680357092339 -8.620442 2.911168 3.588636 
618680377094630 -7.106384 3.083451 3.598207 
618680397118901 -5.764908 2.781656 3.032903 
618680417143380 -4.869095 2.604288 2.048256 
618680437167651 -3.630809 2.223531 1.612463 
618680457182339 -2.025823 1.773082 2.031507 
618680477244995 0.300299 0.635294 2.199303 
618680497269266 3.972684 0.398106 3.562315 
618680517284370 6.792027 2.235495 5.524130 
618680537308693 6.878169 3.728018 4.173083 
618680557307183 7.740781 4.060919 2.177768 
618680577331453 9.592228 5.042874 2.632703 
618680597365985 9.970892 6.046663 2.874677 
618680617390255 10.109675 5.852545 3.883252 
618680637448016 11.424830 6.262316 5.421239 
618680657472287 12.821342 7.263712 6.386444 
618680677487755 13.755739 7.984550 6.300302 
618680697512026 14.230116 8.363214 5.354240 
618680717545672 14.199010 8.705687 4.427021 
618680737569943 13.722239 8.684152 3.895216 
618680757593901 13.274183 8.528319 4.110869 
618680777618172 12.622738 8.269595 4.427021 
618680797639943 11.841780 8.087741 4.302594 
618680817664214 11.046466 7.795517 4.213761 
618680837680828 10.354043 7.797910 4.522734 
618680857705099 9.990034 7.752147 4.783851 
618680877696193 9.506086 7.756933 4.721637 
618680897720464 8.837891 7.579864 4.386343 
618680917779162 7.889136 7.416853 4.259523 
618680937803485 6.638886 7.270891 4.046263 
618680957794110 5.175077 6.877870 3.713063 
618680977818433 4.032505 6.846763 3.833003 
618680997847287 3.902993 7.287641 3.935894 
618681017871610 3.833601 7.285248 3.272484 
618681037925568 3.035894 6.918548 2.469991 
618681057949891 1.418944 6.089734 1.878366 
618681077965672 -0.001496 5.646762 1.087837 
618681097989943 -0.945464 5.426323 0.996611 
618681117989735 -1.275973 4.678865 1.528415 
618681138014058 -1.831706 3.876373 1.624427 
618681157979214 -3.599403 3.148057 0.582353 
618681178003537 -5.978168 2.266601 -0.902991 
618681198110620 -7.880163 2.007877 -0.938884 
618681218134943 -8.701798 1.476072 0.718744 
618681238157808 -9.082855 1.267598 2.472384 
618681258182078 -8.718549 1.296611 4.139583 
618681278201245 -9.681660 1.207777 5.263013 
618681298225516 -11.768201 0.671187 4.759923 
618681318258537 -13.296317 1.023530 4.546961 
618681338282860 -13.442578 1.269991 4.987540 
618681358330099 -13.188641 1.473680 5.598308 
618681378354422 -12.568301 1.907379 6.041578 
618681398291870 -11.645867 2.695515 6.221339 
618681418316193 -11.665010 3.093022 6.055935 
618681438396245 -11.971591 3.320640 5.751748 
618681458420568 -11.782557 3.548257 5.567201 
618681478447599 -11.926127 3.481258 5.459524 
618681498471922 -12.750155 3.162414 4.968397 
618681518469110 -13.552649 2.625824 4.673781 
618681538493433 -13.555041 2.345564 4.803292 
618681558543641 -12.915560 2.365006 5.320441 
618681578567964 -12.110674 2.228316 5.790032 
618681598597912 -10.879268 2.443969 6.113363 
618681618622235 -9.168997 2.707479 5.878866 
618681638647860 -7.734201 3.138486 4.726423 
618681658672183 -5.884848 3.665505 3.967001 
618681678689005 -3.254538 4.252644 3.703491 
618681698713276 -0.940678 4.820341 2.908476 
618681718738172 0.434596 5.119743 1.466202 
618681738762495 0.980758 4.968696 0.395414 
618681758757599 1.809572 5.030910 0.838684 
618681778781922 2.698207 4.633402 1.710569 
618681798831558 3.019144 3.763910 1.684248 
618681818855880 4.490132 3.167200 1.902294 
618681838880985 6.581160 3.275176 2.656930 
618681858905255 8.425727 3.684648 2.680859 
618681878916245 9.621241 3.756732 1.976472 
618681898940568 10.653444 4.206882 1.411167 
618681918976297 12.031113 5.028517 2.189732 
618681939000620 13.638192 5.804688 3.267699 
618681959030203 14.828920 6.981060 3.234199 
618681979054526 14.199010 7.158129 2.352444 
618681999059005 13.367504 6.475576 2.268695 
618682019083328 12.586845 5.737689 2.515455 
618682039124630 12.045469 5.775975 2.120340 
618682059148953 12.364014 6.312565 1.643570 
618682079172287 12.828521 6.736693 1.339383 
618682099196610 12.869497 6.386743 1.257727 
618682119202495 12.423834 6.108876 1.042373 
618682139226818 11.968599 6.300601 1.114158 
618682159214630 11.487044 6.439684 1.782354 
618682179239058 11.448759 6.533004 2.446063 
618682199313068 11.226227 6.430113 2.582454 
618682219337443 10.955539 6.576075 2.802893 
618682239354005 10.703993 6.559325 2.903391 
618682259378380 9.795917 6.176174 2.407778 
618682279392287 8.828320 5.701797 2.033899 
618682299416662 7.699804 5.555536 1.736890 
618682319477964 6.358328 5.531608 1.356132 
618682339502391 4.858925 5.431109 1.437488 
618682359464943 3.663411 4.846662 1.957329 
618682379489370 2.590530 4.214060 2.299802 
618682399571662 0.458525 3.701397 2.074577 
618682419596037 -1.683052 3.212963 2.117947 
618682439622703 -3.693023 3.059523 2.239981 
618682459647130 -5.635695 2.865405 2.489134 
618682479658797 -7.128219 2.554039 3.018546 
618682499683172 -7.614261 2.508575 3.416054 
618682519698953 -7.753344 1.962414 3.902395 
618682539723328 -9.130713 1.775474 5.073980 
618682559752912 -11.070992 1.406681 5.763711 
618682579777287 -12.685549 1.195813 6.079863 
618682599802755 -13.523934 1.162314 6.448956 
618682619827183 -13.327424 1.471287 6.329016 
618682639851922 -12.742977 2.089233 6.367301 
618682659876349 -12.232708 2.503790 6.621239 
618682679901141 -11.609976 2.733800 7.169794 
618682699925516 -11.332108 3.116951 7.498209 
618682719925880 -11.379966 3.303890 7.136294 
618682739950203 -11.588440 3.464508 6.642775 
618682759994370 -11.904592 3.382853 6.149554 
618682780018797 -12.196815 3.222534 5.909973 
618682800042755 -12.467504 2.966203 5.931508 
618682820067130 -12.316755 2.745764 6.003293 
618682840100620 -11.863914 2.678765 6.005686 
618682860125047 -10.369297 2.978167 5.936294 
618682880144110 -8.316256 3.425924 5.603093 
618682900168537 -6.423831 3.679862 4.395914 
618682920192860 -4.674977 4.025027 3.229413 
618682940217235 -2.641377 4.336393 3.152544 
618682960213172 -0.696311 4.506283 3.222235 
618682980237495 1.064507 4.417749 2.857928 
618683000283693 2.434697 4.585546 2.311766 
618683020308120 2.964109 4.753043 1.272084 
618683040331505 4.018147 3.610470 0.512961 
618683060355880 5.642276 3.016452 1.171586 
618683080384526 6.945467 3.289533 2.398206 
618683100408901 7.527521 2.779263 3.128616 
618683120440255 8.389834 1.993520 3.478566 
618683140464630 10.042677 2.566003 3.533601 
618683160445255 11.815459 3.857230 2.910869 
618683180469683 13.020246 4.518247 2.072184 
618683200529839 13.841881 4.942375 1.674677 
618683220554318 14.107783 5.495716 1.830509 
618683240579630 13.786846 5.608477 2.405385 
618683260604110 13.810774 5.747261 2.572883 
618683280626558 13.564014 5.780760 1.974079 
618683300650985 13.336397 5.450252 1.502094 
618683320649735 13.271791 5.445466 1.423131 
618683340674110 13.044173 5.514858 1.380060 
618683360722808 12.574882 5.495716 1.334597 
618683380747287 11.927922 5.158028 1.317847 
618683400773641 11.618949 4.937590 1.329811 
618683420798068 11.877672 5.306383 1.384846 
618683440822860 12.093326 5.869594 1.427917 
618683460847287 12.026028 5.903093 1.372882 
618683480841401 11.609377 5.593821 1.571785 
618683500865828 10.723136 4.772186 2.038685 
618683520923433 9.599406 4.508676 2.237588 
618683540947860 8.806784 5.260920 2.053042 
618683560952130 7.604091 5.411967 1.700998 
618683580976505 6.205187 4.515854 1.765604 
618683601025255 4.897211 4.096811 2.314159 
618683621049735 3.004787 3.768696 3.004189 
618683641071714 1.730310 3.260819 4.520341 
618683661096193 -0.265005 2.510968 5.730212 
618683681085880 -3.743272 2.261816 5.895616 
618683701110255 -6.088537 2.693122 5.509773 
618683721169683 -7.058527 2.453541 5.016253 
618683741194110 -8.083852 2.453541 4.271488 
618683761185620 -9.794122 2.487040 2.843571 
618683781210047 -10.699805 2.335993 3.262913 
618683801234630 -10.757234 2.146960 5.157729 
618683821259005 -11.408679 1.938486 6.137291 
618683841302860 -11.978769 2.096711 6.649953 
618683861327287 -12.632907 2.496611 6.499206 
618683881357808 -13.119248 2.726621 6.051149 
618683901382235 -13.253246 3.059523 6.055935 
618683921379370 -12.580265 3.591328 6.518348 
618683941403745 -11.384751 4.115954 6.968797 
618683961450308 -10.426724 4.726722 7.323234 
618683981474787 -10.567902 4.939982 6.822536 
618684001501245 -10.953744 5.086244 6.262017 
618684021525672 -10.821839 5.122136 6.465706 
618684041517026 -10.687841 4.786542 7.102795 
618684061541453 -10.132109 4.281358 7.165008 
618684081586193 -8.903095 4.094419 6.817750 
618684101610620 -7.096813 3.905087 6.020043 
618684121620828 -4.509872 3.974478 5.339883 
618684141645255 -1.879562 4.298108 4.980361 
618684161684214 -0.286541 4.568796 4.034299 
618684181708693 1.361516 3.888337 3.308376 
618684201742703 3.306582 3.167200 2.987439 
618684221767183 5.381159 3.723232 2.448456 
618684241785099 7.093822 5.040481 1.677070 
618684261809578 6.775277 4.561617 0.143868 
618684281817547 7.098608 2.997309 -0.344866 
618684301842026 8.171788 3.421138 0.361914 
618684321889370 9.163613 3.909872 0.857827 
618684341913849 10.011570 3.778267 0.819542 
618684361940880 10.512268 3.929015 0.642174 
618684381965360 11.638091 4.439284 0.673280 
618684401986714 13.211970 5.404788 0.893719 
618684422011193 14.012071 5.943771 1.133301 
618684442033589 14.203795 6.037092 1.389632 
618684462058068 13.980964 5.915058 1.815853 
618684482082026 13.796417 5.713761 2.184946 
618684502106505 13.715061 5.689833 2.359622 
618684522128953 14.234902 6.279066 2.285445 
618684542153433 14.704194 6.650252 2.021935 
618684562179005 14.697016 6.405885 2.009971 
618684582203485 14.218152 6.255137 2.501098 
618684602233953 13.338790 5.915058 2.750251 
618684622258433 11.923136 5.687440 2.900998 
618684642274578 10.591231 5.653941 3.179164 
618684662299058 9.611670 5.811867 3.488137 
618684682325776 8.684451 5.177171 3.674777 
618684702350308 6.765706 4.020241 3.526422 
618684722349214 4.291228 3.718446 2.968297 
618684742373745 2.484946 3.938586 2.814857 
618684762419005 1.296910 4.535296 2.814857 
618684782443537 0.379262 4.640580 2.676073 
618684802470151 -0.128614 4.566403 2.503491 
618684822494683 -0.880559 4.235595 1.998007 
618684842519891 -1.510768 4.338786 1.537987 
618684862544370 -2.794518 4.123133 1.257727 
618684882568849 -4.557729 3.478865 1.554736 
618684902593380 -6.792625 2.396113 2.125126 
618684922613328 -10.153644 1.214956 2.505883 
618684942637808 -13.267603 0.798305 3.545565 
618684962625568 -14.700306 0.685544 4.338487 
618684982650047 -15.061921 0.803091 5.758926 
618685002685724 -14.031811 1.440180 6.578168 
618685022710203 -13.269997 2.149353 5.960222 
618685042753953 -12.410075 3.097808 5.100301 
618685062778433 -11.234003 4.072883 5.576772 
618685082809683 -10.191929 4.698008 6.884749 
618685102834162 -10.299606 5.016552 7.019046 
618685122852964 -11.056635 5.107779 5.953043 
618685142877443 -11.432608 5.129314 5.117051 
618685162869370 -11.241181 5.110172 4.882256 
618685182893745 -10.876874 5.102993 4.939683 
618685202944683 -10.625329 4.856234 5.239085 
618685222969005 -10.211072 4.712365 5.109873 
618685242993120 -9.092427 4.788935 5.021039 
618685263017495 -8.249256 4.666902 4.448556 
618685283001766 -7.322037 4.379464 4.340879 
618685303026089 -5.970990 3.914658 4.551747 
618685323053068 -4.179364 3.524329 4.110869 
618685343077391 -2.535794 3.205784 3.559922 
618685363126193 -0.940678 2.556432 2.927619 
618685383150516 1.143470 1.823630 2.472384 
618685403198537 3.261118 1.090529 2.137090 
618685423222860 6.861419 1.327717 2.551347 
618685443255412 10.409078 2.609074 2.790929 
618685463279735 12.543475 3.835695 1.978864 
618685483265308 12.950853 4.808377 0.345165 
618685503289683 11.762817 4.255037 -1.113560 
618685523333641 11.511271 3.500401 -0.749552 
618685543357964 11.877672 4.025027 0.198903 
618685563361453 12.548261 4.837091 0.634995 
618685583385828 13.662419 5.383253 0.505783 
618685603404630 14.179568 5.522037 -0.172283 
618685623428953 14.136497 5.356932 -0.368794 
618685643423120 13.477873 5.246563 -0.200997 
618685663447443 12.668201 5.392824 0.005085 
618685683472078 12.126825 5.201099 -0.081356 
618685703496453 11.709876 4.973482 -0.200997 
618685723560151 11.554342 5.045267 0.091226 
618685743584474 11.714662 5.435895 0.596710 
618685763620880 11.848959 5.598607 0.999003 
618685783645203 11.815459 5.560322 1.085444 
618685803653797 11.915957 5.804688 0.831506 
618685823678172 11.913565 6.061020 0.471984 
618685843725203 11.508879 6.286244 0.424128 
618685863749526 10.893026 6.209674 1.023231 
618685883740360 9.980463 6.235995 1.840081 
618685903764735 9.110971 5.919843 2.326123 
618685923806610 8.009076 5.524429 2.297409 
618685943830985 6.530910 5.181957 1.923829 
618685963849578 4.878068 4.776971 1.825425 
618685983873901 3.347260 4.434499 1.782354 
618686003921610 2.113760 3.993920 1.523630 
618686023945985 1.062114 3.610470 1.492523 
618686043947703 0.405583 3.593720 2.635096 
618686063972026 -0.765703 3.459723 3.662813 
618686083999005 -2.430510 3.189034 4.223332 
618686104023380 -3.843771 2.628217 4.712066 
618686124074318 -4.984250 2.510968 4.877470 
618686144098641 -6.620342 2.223531 4.601996 
618686164093537 -8.929416 1.159921 4.774280 
618686184117912 -11.739487 0.017348 5.461917 
618686204154370 -14.206786 -0.454636 6.149554 
618686224178745 -15.972091 -0.885943 6.254838 
618686244203537 -16.546967 -0.234198 5.967401 
618686264227912 -15.346966 0.668794 5.852246 
618686284238537 -13.808979 1.964806 5.390132 
618686304262912 -12.168101 3.119344 5.224728 
618686324278276 -10.218250 4.173382 6.029614 
618686344302651 -9.305687 4.702794 6.911070 
618686364329683 -9.734302 4.537689 7.114759 
618686384354058 -11.339288 3.996313 6.240481 
618686404410464 -13.126427 3.177070 4.808078 
618686424434787 -13.904991 2.623431 4.254439 
618686444434526 -13.035200 2.577967 5.090730 
618686464458901 -12.012568 2.819942 6.168697 
618686484483537 -11.241181 3.037987 6.214160 
618686504507912 -9.645767 3.421138 6.159125 
618686524536297 -7.427620 3.897908 6.314659 
618686544560672 -5.350650 4.460820 5.718248 
618686564562547 -3.736094 5.014160 4.405486 
618686584586922 -2.444866 5.138885 3.183950 
618686604598224 -1.129711 5.016552 2.228017 
618686624622599 0.563809 4.619045 2.153840 
618686644674683 2.195116 4.662116 2.903391 
618686664699058 2.480161 4.633402 2.474777 
618686684730933 2.674278 3.392424 1.236192 
618686704755255 4.161717 2.487040 1.298705 
618686724774683 6.312864 3.016452 0.795614 
618686744799058 7.951350 2.748157 -0.366401 
618686764833901 8.368299 1.619941 -0.402293 
618686784858328 9.163613 0.980160 1.803889 
618686804871193 11.659627 2.146960 3.490530 
618686824895568 12.751950 3.232105 2.781357 
618686844936505 12.761521 2.810370 2.060220 
618686864960880 13.219149 2.007877 2.400599 
618686884974162 13.834702 2.443969 2.632703 
618686904998537 14.174782 3.220141 2.354837 
618686925025047 14.256437 3.066701 1.914258 
618686945049422 14.150854 2.966203 1.514058 
618686965076558 13.889737 2.839084 1.185943 
618686985100933 13.710276 2.726621 0.920040 
618687005096505 13.995320 3.210570 0.845863 
618687025120880 14.169996 3.409174 1.083051 
618687045155568 14.057534 3.368496 1.408774 
618687065179943 14.069498 3.699005 1.712962 
618687085219474 14.165211 4.151846 1.837688 
618687105243849 13.858630 4.178167 2.088934 
618687125264162 13.628620 4.267001 2.886642 
618687145288537 13.159328 4.135097 3.315555 
618687165306714 12.318550 3.524329 3.243770 
618687185331089 10.567303 2.894119 2.541776 
618687205353745 8.217252 2.848655 1.799103 
618687225378120 6.626623 2.693122 2.556133 
618687245401766 6.073283 2.113461 3.399304 
618687265426141 4.293621 1.504786 2.810071 
618687285460620 1.423729 0.721436 1.240978 
618687305484995 -1.302294 0.961017 -0.165105 
618687325523745 -4.646264 1.143171 -0.610768 
618687345548120 -6.809375 1.023530 0.306879 
618687365558224 -7.966604 0.711865 1.325026 
618687385582599 -9.562018 0.630509 1.916651 
618687405606193 -11.648261 0.307179 2.525026 
618687425630568 -13.466507 -0.071486 3.356233 
618687445658589 -14.084454 0.002991 3.983751 
618687465682964 -13.521542 0.328714 4.405486 
618687485709630 -13.361222 0.273679 4.391129 
618687505734005 -13.547863 0.395713 4.297809 
618687525755464 -13.765908 0.642473 3.825824 
618687545779839 -13.399508 1.109671 3.866502 
618687565805360 -12.980165 1.452144 4.654638 
618687585829735 -13.037593 1.627119 4.851149 
618687605859162 -13.322639 1.869094 4.585247 
618687625883537 -13.593327 1.904986 4.276273 
618687645893641 -12.965809 2.273780 4.628317 
618687665917964 -12.479467 2.800799 5.303691 
618687685951974 -11.866306 3.040380 5.746962 
618687705976349 -10.548759 3.519543 5.533701 
618687726003745 -8.919845 3.826123 4.992325 
618687746045880 -7.005886 4.743472 3.437589 
618687766066662 -5.954240 5.411967 2.805285 
618687786090724 -4.179364 5.661119 3.212663 
618687806118797 -3.264109 5.891129 3.253341 
618687826143068 -4.418646 5.373682 2.182553 
618687846171662 -4.138387 4.298108 1.686641 
618687866171401 -1.376471 4.345964 1.724926 
618687886231453 1.098006 4.446463 2.532205 
618687906255776 0.997508 3.629613 1.950150 
618687926282443 2.532803 2.048555 1.648356 
618687946306766 5.548656 2.851048 2.872284 
618687966327443 7.216155 3.507579 2.932404 
618687986351818 8.121539 3.152843 1.150050 
618688006375724 9.824631 3.014059 1.238585 
618688026400047 11.542378 4.118347 2.388635 
618688046398328 12.301801 4.760221 2.074577 
618688066422703 13.259827 4.738686 1.859223 
618688086474735 13.921143 4.813163 1.610071 
618688106499058 14.141283 5.251348 1.279263 
618688126523224 14.447864 5.555536 1.332204 
618688146547547 14.421542 5.483751 1.042373 
618688166572808 13.741383 4.990232 0.644567 
618688186597183 13.056138 4.750650 0.517747 
618688206624839 12.637094 4.774579 0.532104 
618688226649162 12.529119 5.141279 0.711566 
618688246673380 12.301801 5.284848 0.975075 
618688266697703 12.059826 5.555536 1.521237 
618688286685464 12.102897 5.874380 2.043471 
618688306709787 11.959028 5.960521 2.376671 
618688326740828 11.640484 6.053841 2.513062 
618688346765151 11.132607 6.049056 2.326123 
618688366773849 9.999606 5.821438 2.019542 
618688386798172 8.519047 5.838188 2.235195 
618688406820360 7.395617 5.725726 2.874677 
618688426844735 6.940681 6.214459 2.788536 
618688446860047 6.461518 6.084948 2.165804 
618688466884422 5.345267 5.333004 1.013360 
618688486910203 3.373581 4.801198 -0.323031 
618688506934578 0.329013 3.816552 -1.904089 
618688526974474 -2.475973 3.517150 -2.435894 
618688546998797 -4.147958 4.036991 -1.736591 
618688567010047 -4.445266 4.561617 -1.139881 
618688587034422 -4.564908 4.738686 -1.173679 
618688607067755 -5.276473 4.283751 -1.688735 
618688627092078 -6.227321 3.876373 -1.717448 
618688647109058 -7.872985 3.476472 0.357129 
618688667133380 -9.597911 2.942275 2.101197 
618688687146141 -11.394322 2.340779 2.833999 
618688707170464 -12.793526 1.775474 3.035295 
618688727210099 -13.600804 1.269991 3.222235 
618688747234422 -13.698910 1.152742 3.543172 
618688767273276 -13.820944 1.097707 3.866502 
618688787297651 -13.679767 1.030708 3.828217 
618688807292964 -13.682159 1.100100 3.411268 
618688827317339 -13.765908 1.035494 2.790929 
618688847346193 -13.902598 0.884447 2.299802 
618688867370568 -13.811373 0.860519 2.484348 
618688887426818 -14.077274 0.965803 2.525026 
618688907451245 -14.393426 1.169492 2.680859 
618688927473068 -14.273786 1.500001 3.107080 
618688947497443 -13.461721 1.873879 3.444767 
618688967526089 -12.486646 1.983949 3.610171 
618688987550464 -10.975279 1.787439 2.970689 
618689007538537 -8.515159 1.909772 2.620739 
618689027562964 -5.760122 2.316850 2.481955 
618689047595672 -3.458227 2.499004 2.402992 
618689067620099 -1.721337 2.268994 2.632703 
618689087654735 -0.394517 0.961017 3.219842 
618689107679162 2.583052 0.501296 4.364808 
618689127716141 6.162117 1.100100 4.101298 
618689147740568 5.929714 1.119243 1.095015 
618689167730672 7.910672 1.269991 -0.938884 
618689187755047 10.176973 1.806581 -0.864407 
618689207779162 10.239187 1.794617 -0.110070 
618689227803589 11.666805 1.176671 1.078266 
618689247863068 13.027424 1.159921 2.204089 
618689267887443 13.722239 1.468894 2.448456 
618689287877860 14.979668 2.115853 2.278266 
618689307902287 16.112968 3.164807 1.648356 
618689327960985 15.988243 3.454937 1.344168 
618689347985360 14.943775 2.676372 1.631606 
618689367970880 14.390435 2.537289 2.371886 
618689387995255 14.594125 2.966203 2.630310 
618689408021922 15.104394 3.452544 2.026721 
618689428046349 15.367904 3.728018 1.281656 
618689448106974 15.501902 3.565007 1.325026 
618689468131349 15.073287 3.256033 1.684248 
618689488118120 14.440684 3.375674 1.760818 
618689508142547 14.062320 3.780660 1.344168 
618689528189578 13.849059 3.826123 0.943969 
618689548213953 13.025031 3.047559 0.776471 
618689568240620 11.556735 2.292922 1.276870 
618689588264995 10.160224 2.903989 2.105983 
618689608299995 9.034101 3.890730 2.029114 
618689628324422 8.097610 4.087240 1.106980 
618689648346349 7.515557 3.066701 0.450449 
618689668370724 6.262615 1.430609 0.747458 
618689688369162 2.358127 1.818545 0.589532 
618689708393589 -0.770489 4.034598 -0.066999 
618689728438537 -1.204188 4.343571 -1.015454 
618689748462964 -2.483152 4.209274 -0.193819 
618689768487026 -4.196114 3.533900 1.159622 
618689788511453 -5.369793 3.392424 1.921437 
618689808504630 -6.260820 2.805584 1.811068 
618689828529058 -7.734201 1.732404 1.559821 
618689848582651 -10.067204 0.290429 1.840081 
618689868607078 -11.847164 -1.168595 2.371886 
618689888603745 -12.759727 -2.054837 2.900998 
618689908628016 -13.267603 -2.459522 3.466602 
618689928688953 -13.708481 -3.039483 3.849752 
618689948713172 -14.357534 -3.468097 4.158726 
618689968695047 -16.154245 -3.638287 4.383950 
618689988719266 -16.834404 -3.506382 3.538387 
618690008747860 -15.404394 -2.751746 2.951547 
618690028772078 -14.810376 -2.138585 3.514458 
618690048826610 -14.156537 -1.496711 3.291627 
618690068850828 -13.231711 -0.602991 3.579064 
618690088879266 -12.321541 0.494118 4.793422 
618690108903485 -11.248360 1.313361 5.615356 
618690128924891 -11.200503 2.367399 4.767101 
618690148949110 -10.723734 2.702693 4.153940 
618690168973328 -9.288938 2.673979 3.538387 
618690188997547 -7.935497 3.167200 2.350051 
618690208991453 -6.181857 3.615256 0.527318 
618690229015724 -4.172185 3.655934 0.359522 
618690249038537 -1.663909 3.667898 1.511666 
618690269062755 -0.550050 3.294319 1.574178 
618690289087703 -0.693919 2.453541 1.607678 
618690309111922 0.681057 1.186242 2.623132 
618690329160047 4.022933 0.807877 3.380161 
618690349181558 7.433902 1.085743 3.543172 
618690369205724 9.209077 2.319243 2.985046 
618690389238641 9.388838 2.939882 0.718744 
618690409262860 10.035499 2.178067 -0.124427 
618690429286401 11.719447 2.640480 1.504487 
618690449305880 13.516158 3.747160 1.952543 
618690469330047 13.628620 3.933800 0.443270 
618690489348016 12.739986 3.181856 -0.761516 
618690509372235 12.953246 2.455933 -0.905384 
618690529410933 13.540086 2.831906 -1.053739 
618690549435151 14.277973 3.493222 -0.969990 
618690569482287 14.948562 3.795017 -1.039382 
618690589506558 15.322440 3.632006 -1.405783 
618690609505985 15.351153 3.809374 -1.439582 
618690629530203 15.269797 4.367499 -1.219143 
618690649575724 14.989240 4.460820 -0.713659 
618690669599995 14.498411 4.484748 -0.251246 
618690689609630 14.191831 4.743472 0.110369 
618690709633849 14.114962 5.076673 0.249452 
618690729673433 13.418052 5.141279 0.302094 
618690749697703 12.689736 5.327919 0.517747 
618690769725308 11.966207 5.222634 1.272084 
618690789749578 10.634302 5.033302 1.787139 
618690809774005 9.592228 4.985446 1.588535 
618690829798276 8.356335 4.218845 1.389632 
618690849817599 6.684350 3.653541 1.128515 
618690869841870 5.057829 3.069094 0.644567 
618690889854266 3.110071 2.513361 0.611067 
618690909878485 0.070289 2.365006 0.297308 
618690929883745 -2.313261 2.834298 0.390628 
618690949907964 -4.248756 3.126522 0.843470 
618690969927860 -5.056034 3.035595 1.281656 
618690989952078 -5.479863 3.210570 1.662713 
618691010013068 -5.733801 3.172285 2.201696 
618691030037339 -5.717052 2.786442 2.443670 
618691050065985 -6.754340 2.000699 2.328516 
618691070090255 -7.913663 1.500001 2.534597 
618691090098693 -9.339187 0.599402 2.980261 
618691110122964 -10.766805 -0.816252 3.626921 
618691130161349 -11.902199 -1.451247 5.373383 
618691150185620 -13.770695 -1.867897 7.399804 
618691170209526 -16.585550 -2.557927 8.379665 
618691190233797 -17.807087 -2.565106 8.365308 
618691210255724 -15.502799 -1.484746 8.355737 
618691230279995 -12.050853 0.069990 8.590532 
618691250304318 -10.577473 1.021137 8.312666 
618691270328589 -11.145169 1.016351 7.581958 
618691290335516 -12.699906 0.525225 6.420242 
618691310359735 -13.507185 0.254537 5.524130 
618691330403224 -13.607983 0.319143 4.659424 
618691350427495 -12.834204 0.807877 4.134798 
618691370408172 -11.617154 0.903590 4.194618 
618691390432391 -10.141680 1.023530 4.019942 
618691410497130 -8.083852 1.313361 3.991228 
618691430521401 -5.760122 1.212563 3.104687 
618691450544943 -3.072384 1.349253 2.661716 
618691470569266 -0.411266 1.437787 2.498705 
618691490579735 1.668097 1.337289 1.746461 
618691510604058 2.762813 0.393320 0.520140 
618691530644422 5.424230 0.264108 0.790828 
618691550668745 8.600702 2.163710 2.261517 
618691570664474 10.291829 2.815156 2.007578 
618691590688797 9.966106 2.247459 0.143868 
618691610714995 10.138390 1.907379 -0.601197 
618691630739318 11.626127 2.659622 -0.763909 
618691650764891 12.414263 3.124129 -1.041775 
618691670789214 13.209578 3.181856 -1.123131 
618691690829422 14.218152 3.275176 -0.917348 
618691710853745 15.245570 3.612863 -0.471685 
618691730888224 15.863816 4.156632 -0.416650 
618691750912547 15.978671 4.463212 -0.512363 
618691770931922 16.203896 4.350750 -0.775873 
618691790956245 15.921244 3.919444 -1.183251 
618691810980985 15.612270 4.412963 -0.991526 
618691831005308 15.231214 4.676473 -0.399900 
618691851001401 14.472091 4.798806 -0.093320 
618691871025724 13.688740 4.645366 -0.088534 
618691891062651 12.787843 4.698008 0.024227 
618691911086974 12.038291 5.275277 0.359522 
618691931129110 11.547164 5.579464 0.924826 
618691951153433 10.663016 4.868197 1.451845 
618691971169058 9.043674 4.738686 1.655534 
618691991193380 7.496414 4.290929 2.048256 
618692011223433 5.932106 3.962514 2.019542 
618692031247755 4.118646 3.969693 1.696212 
618692051276453 2.844169 3.334996 1.207478 
618692071300776 2.137688 2.592324 1.051945 
618692091316974 0.355334 3.236891 1.049552 
618692111341245 -1.177568 3.035595 1.025624 
618692131374370 -2.555235 2.381756 0.718744 
618692151398693 -4.196114 2.465505 0.881755 
618692171421662 -5.985347 1.749153 0.567996 
618692191445985 -7.640582 0.673580 0.649352 
618692211467808 -9.636196 -0.059222 1.200300 
618692231492130 -10.900803 -0.583849 1.887937 
618692251516870 -11.720345 -1.333699 2.913262 
618692271541193 -12.764512 -2.078765 3.758825 
618692291564578 -14.237893 -2.464308 4.496413 
618692311588901 -16.235601 -2.758924 4.709673 
618692331576245 -17.042879 -2.838187 5.148158 
618692351600568 -16.149460 -2.363810 5.749355 
618692371632183 -14.060525 -1.391127 6.446563 
618692391656505 -12.405290 -0.490529 7.033403 
618692411711193 -12.929916 -0.411565 7.282556 
618692431735516 -14.089239 -0.825823 7.167401 
618692451758016 -13.914563 -0.883550 7.344769 
618692471782339 -13.593327 -0.720539 6.637989 
618692491810360 -13.078570 0.017348 5.648856 
618692511834683 -12.532409 0.827019 4.613960 
618692531859058 -11.025529 1.112064 4.151547 
618692551883380 -8.816954 1.734796 3.902395 
618692571894058 -6.857531 2.400898 3.332305 
618692591898276 -5.523233 2.719443 2.354837 
618692611922651 -3.973282 2.994917 1.423131 
618692631977651 -2.543271 2.592324 0.690030 
618692652002026 -1.489233 1.739582 -0.210568 
618692671956714 -0.157328 0.252144 -0.498006 
618692691980985 2.207080 -1.772184 -0.004487 
618692712075516 5.318945 -1.453640 1.147658 
618692732099839 7.266404 -0.236590 2.237588 
618692752099526 8.615059 -1.925325 2.750251 
618692772123849 10.529017 -2.775973 2.812464 
618692792160099 12.962817 -0.418744 2.144268 
618692812184422 15.056538 1.500001 0.948754 
618692832226193 16.620846 1.883451 0.853041 
618692852250516 17.497515 2.235495 1.298705 
618692872241818 17.370398 2.817549 1.765604 
618692892266141 17.087744 2.824727 1.974079 
618692912290620 16.517654 2.601896 1.296312 
618692932314943 16.077076 2.482255 0.496212 
618692952364005 16.021742 2.589931 0.019442 
618692972388328 15.890137 3.370889 -0.282353 
618692992413901 15.906887 3.914658 0.105583 
618693012438224 15.827924 3.919444 0.505783 
618693032460568 15.365511 3.907479 0.381057 
618693052484891 14.450256 3.526721 0.318844 
618693072508745 13.053745 3.193820 0.455234 
618693092533068 11.240583 2.577967 1.099801 
618693112526818 10.933704 3.967300 2.515455 
618693132551193 10.138390 4.446463 3.262913 
618693152598641 9.285647 3.795017 3.066402 
618693172623016 7.908279 3.291926 2.354837 
618693192657443 5.889036 3.109772 1.808675 
618693212681766 3.562913 3.830909 1.207478 
618693232703849 2.281257 3.998706 0.733101 
618693252728172 1.311267 2.913561 0.163011 
618693272753016 -0.595514 2.168495 0.036191 
618693292777339 -3.125325 2.156531 0.426521 
618693312802443 -5.173283 2.688336 0.345165 
618693332826766 -6.972386 2.807977 0.009870 
618693352847912 -8.007282 2.503790 0.790828 
618693372872235 -7.679166 2.724229 2.055435 
618693392900516 -7.022635 3.140879 2.798107 
618693412924839 -7.796414 2.724229 2.805285 
618693432918849 -9.631411 1.806581 2.525026 
618693452943172 -11.847164 0.989731 2.690430 
618693472997547 -13.533505 0.091525 3.806682 
618693493021870 -14.472689 -0.224626 5.081159 
618693513008172 -14.990136 0.007777 5.905187 
618693533032495 -15.289538 0.247358 6.297909 
618693553093016 -15.538692 0.592224 5.682355 
618693573117339 -14.573187 1.246062 5.145765 
618693593139370 -12.901202 2.146960 5.361418 
618693613163693 -11.700903 2.621038 5.775676 
618693633170255 -11.277074 2.635694 6.130113 
618693653194578 -11.861521 2.573182 5.898009 
618693673209058 -11.823236 2.831906 6.067899 
618693693233537 -11.449656 3.126522 6.254838 
618693713284058 -10.821839 3.009274 5.799604 
618693733308537 -9.468399 3.104986 4.395914 
618693753308120 -7.638189 3.404388 3.133401 
618693773332599 -6.057431 3.574578 2.395814 
618693793364318 -4.270291 3.557828 2.146661 
618693813388797 -2.066501 3.699005 2.014757 
618693833431245 -0.272184 3.744767 2.278266 
618693853455724 0.101396 3.093022 1.674677 
618693873463797 0.463310 2.257030 1.677070 
618693893488276 2.425126 1.818545 2.606382 
618693913528693 5.901000 1.468894 3.006582 
618693933553120 8.111968 1.272383 2.084148 
618693953553537 8.452047 0.764806 1.013360 
618693973578016 10.181760 0.984946 0.699602 
618693993602287 13.096816 2.944667 0.299701 
618694013626766 15.487545 3.811766 -0.129212 
618694033622078 16.098612 3.723232 -0.006879 
618694053646505 14.852848 4.621438 0.841077 
618694073695308 14.790635 4.336393 2.206482 
618694093719787 14.498411 4.530510 2.788536 
618694113747547 14.299508 4.465605 1.974079 
618694133772026 14.582160 3.876373 0.750150 
618694153824214 14.203795 3.442973 -0.107677 
618694173848693 13.918750 4.218845 -0.030808 
618694193872651 14.447864 5.301598 0.929612 
618694213897130 14.871991 5.656333 1.348954 
618694233915724 14.737993 4.762614 1.207478 
618694253940203 13.564014 3.917051 1.262513 
618694273966349 12.215360 4.027420 1.770390 
618694293990828 11.345868 4.899304 2.474777 
618694314016662 10.682458 5.330611 2.568097 
618694334041141 9.743275 4.937590 2.311766 
618694354028745 8.284551 4.420142 1.976472 
618694374053224 6.485446 4.839484 1.734497 
618694394115776 5.958427 5.807081 2.055435 
618694414140255 5.491229 6.164210 1.794318 
618694434160412 4.315156 5.196313 1.322633 
618694454184891 2.748456 3.964907 1.291526 
618694474210464 1.047757 3.406781 1.178764 
618694494234891 -1.517947 2.942275 0.630210 
618694514255516 -4.152744 2.978167 0.117547 
618694534279995 -5.451149 3.047559 0.481855 
618694554270203 -6.311069 2.532504 0.943969 
618694574294683 -7.281359 1.861915 0.979861 
618694594314683 -8.548658 1.560120 1.087837 
618694614339162 -9.700802 1.131207 1.492523 
618694634377651 -11.054242 0.213859 1.986043 
618694654402130 -12.953844 -0.706182 2.400599 
618694674430776 -15.339787 -1.400699 2.961118 
618694694455203 -17.263319 -1.846362 3.540779 
618694714470255 -16.975880 -1.628316 4.968397 
618694734494735 -15.104992 -0.658325 6.592525 
618694754514787 -13.607983 0.357428 7.069295 
618694774539266 -12.549158 1.490429 6.659524 
618694794578745 -11.782557 2.532504 6.103791 
618694814603276 -11.133205 3.112165 5.799604 
618694834592651 -11.289038 3.090630 5.277370 
618694854617130 -12.242279 2.705086 4.534997 
618694874677183 -13.056736 2.235495 4.726423 
618694894701662 -12.422040 1.952842 5.526523 
618694914725203 -11.324930 1.866701 5.404489 
618694934749683 -9.937990 1.907379 4.276273 
618694954773849 -7.995318 1.964806 2.735893 
618694974798328 -5.345865 2.003092 2.199303 
618694994791818 -2.449652 1.854737 2.529812 
618695014816297 -0.027817 1.811367 2.735893 
618695034869995 2.024926 1.624727 2.304587 
618695054894474 3.464807 1.296611 2.115554 
618695074918849 5.857929 1.188635 3.457031 
618695094943328 8.236395 1.509572 3.142972 
618695114966766 10.713564 2.290529 0.939183 
618695134991245 12.732807 2.949453 -0.845265 
618695154981037 13.980964 4.230810 -1.856232 
618695175005516 14.675481 5.335396 -2.311467 
618695195033901 14.584553 5.701797 -2.007279 
618695215058433 13.945071 5.982057 -1.494617 
618695235067130 13.394124 5.838188 -1.195215 
618695255091610 13.233505 5.536393 -1.070489 
618695275126089 13.238292 5.428716 -1.113560 
618695295150568 13.427624 5.653941 -1.247857 
618695315210099 13.880166 6.310173 -1.540080 
618695335234578 14.292330 6.861120 -1.686342 
618695355222547 13.853845 6.489933 -1.703092 
618695375247026 13.094422 6.089734 -1.257428 
618695395276922 12.505190 5.994021 -0.294317 
618695415301401 11.987742 6.247959 0.254237 
618695435352964 11.858530 6.559325 0.270987 
618695455377443 11.738589 6.521040 0.131904 
618695475404683 11.547164 6.719944 0.249452 
618695495429110 11.513664 7.234998 0.735494 
618695515452912 11.099108 7.479066 1.231406 
618695535477391 10.452448 7.402496 1.514058 
618695555463641 9.431909 6.851549 1.511666 
618695575488120 8.049754 5.950950 1.518844 
618695595548485 6.566803 5.435895 1.864009 
618695615572964 5.455337 5.023731 2.273481 
618695635596714 4.703093 4.602295 1.895115 
618695655621193 3.146263 3.682255 1.162014 
618695675644474 1.708774 2.633301 0.841077 
618695695668953 0.048754 1.449751 0.615853 
618695715695308 -1.922633 0.594616 0.888934 
618695735675933 -3.867699 -0.056830 0.771685 
618695755700412 -4.916952 -0.282054 1.104587 
618695775734683 -5.666802 -0.725324 1.233799 
618695795759110 -6.294320 -1.585245 0.929612 
618695815797287 -7.805985 -2.435594 0.776471 
618695835821766 -10.282856 -3.722036 1.629213 
618695855795672 -13.298710 -5.231308 2.910869 
618695875862443 -15.449858 -6.115158 4.609175 
618695895929630 -16.322041 -6.287740 5.950651 
618695915954110 -16.259529 -6.081658 6.520741 
618695935957495 -15.591333 -5.432306 6.827321 
618695955981974 -14.673686 -4.483850 7.205686 
618695976003953 -14.086846 -3.539882 7.737491 
618695996028433 -14.082061 -2.732604 7.744669 
618696016072235 -14.156537 -2.126621 7.423732 
618696036096714 -13.976776 -1.769791 7.289734 
618696056117078 -13.509578 -1.482354 6.695716 
618696076141558 -13.555041 -1.444068 5.749355 
618696096172443 -13.485649 -1.549353 5.294120 
618696116196870 -13.198212 -1.539781 5.210371 
618696136217130 -11.918949 -1.352842 5.390132 
618696156241558 -10.484153 -1.005584 5.339883 
618696176274370 -8.974879 -0.746860 5.167301 
618696196298849 -6.646663 -0.500100 5.332405 
618696216324578 -4.334898 -0.138485 4.992325 
618696236349005 -2.190928 0.182453 4.412664 
618696256324578 -0.451944 0.098704 3.868895 
618696276349005 0.896710 -0.670289 3.289234 
618696296385880 3.105286 -1.436890 3.766004 
618696316410360 6.514161 -1.271486 4.558925 
618696336405308 8.519047 -1.285843 3.212663 
618696356429735 11.681162 -0.171984 2.465205 
618696376456870 14.895919 2.496611 1.842473 
618696396476558 15.798910 3.315854 1.315454 
618696416500985 14.860026 3.768696 1.933401 
618696436538849 14.366508 4.515854 2.802893 
618696456563328 13.969000 4.942375 1.887937 
618696476586662 13.238292 4.834698 -0.006879 
618696496611089 13.568800 5.079065 -0.852443 
618696516621922 14.893526 5.433502 -0.102891 
618696536646349 16.129719 5.840581 1.142872 
618696556685620 17.078173 6.573682 1.660320 
618696576710099 17.363218 6.949954 1.317847 
618696596746505 16.668701 6.619146 0.872184 
618696616770985 15.327226 6.231209 0.987039 
618696636791245 14.024035 5.627620 1.645963 
618696656815724 13.329219 5.941379 2.391028 
618696676843485 12.790236 6.039485 2.707180 
618696696867912 12.371192 6.166603 2.951547 
618696716864058 11.585449 5.680262 2.826821 
618696736888485 10.327722 5.047659 2.671287 
618696756920255 9.115757 4.947161 3.008975 
618696776944683 7.525128 4.499105 3.097509 
618696796985568 5.893821 3.969693 2.489134 
618696817010047 4.573881 3.689433 2.249552 
618696837038380 3.617948 3.627220 2.386242 
618696857062860 2.714956 2.858227 2.259124 
618696877085464 1.584348 1.964806 1.986043 
618696897109943 -0.013460 1.248455 2.067399 
618696917088537 -1.532304 0.721436 2.352444 
618696937112964 -3.266502 -0.083450 2.242374 
618696957155568 -5.123033 -1.103689 1.959722 
618696977180047 -7.640582 -2.109871 1.998007 
618696997227391 -10.433903 -2.296811 2.438884 
618697017251818 -12.436397 -2.902793 2.963511 
618697037277808 -13.418651 -3.853940 4.012764 
618697057302287 -14.599508 -4.057330 6.041578 
618697077324162 -15.150455 -4.196413 7.991429 
618697097348589 -15.500406 -4.380660 9.500702 
618697117356714 -15.138492 -3.973581 10.674382 
618697137381193 -14.257035 -3.125625 10.988141 
618697157410099 -13.651053 -2.222334 10.312766 
618697177434526 -13.444971 -1.230808 9.277871 
618697197492183 -13.382758 -0.418744 8.116156 
618697217516662 -13.116856 -0.032901 7.387840 
618697237539422 -12.783655 0.081954 6.951748 
618697257563901 -12.237494 0.065204 6.673882 
618697277589787 -11.981462 0.136989 6.573383 
618697297614266 -11.346466 0.156132 6.566205 
618697317651089 -10.199107 0.376570 6.714859 
618697337675568 -8.876774 0.711865 6.010471 
618697357687391 -7.221539 1.191028 4.721637 
618697377711818 -5.520840 1.466501 3.267699 
618697397728849 -3.836592 1.444966 3.219842 
618697417753485 -1.618445 1.346860 4.415057 
618697437778016 0.381655 0.889233 4.300201 
618697457802599 1.816751 -0.327518 2.680859 
618697477800568 3.977469 -0.816252 2.407778 
618697497825151 5.663811 0.366999 4.568497 
618697517855412 6.274579 0.714258 6.134898 
618697537879995 7.335796 -0.900300 6.156733 
618697557922912 10.524232 0.089133 6.024828 
618697577947495 12.629916 2.990131 4.740780 
618697597962130 13.664812 4.721936 3.543172 
618697617986714 15.137894 5.117350 3.303591 
618697638007287 16.122540 5.172385 3.229413 
618697658031870 15.825531 5.979664 3.140580 
618697678031245 15.341582 6.044270 3.533601 
618697698055828 15.489938 5.340182 4.532604 
618697718122026 15.317655 5.416752 5.366204 
618697738146558 14.821742 5.313562 6.039185 
618697758154318 14.809777 5.543572 6.307480 
618697778178901 14.891133 6.142675 6.151947 
618697798179162 14.435899 6.039485 5.780461 
618697818203745 13.089637 5.601299 4.767101 
618697838243068 11.477473 5.608477 3.799503 
618697858267651 11.108679 6.425327 4.450949 
618697878297130 11.451152 6.247959 5.028218 
618697898321714 10.538589 5.251348 4.738387 
618697918329110 8.461619 5.352146 4.204189 
618697938353641 6.701100 6.255137 4.312166 
618697958394683 6.226723 5.915058 4.635496 
618697978419318 6.200402 4.494319 4.450949 
618697998442183 5.117650 3.373282 3.394518 
618698018466766 3.390331 3.838088 2.297409 
618698038496401 1.526920 4.209274 1.332204 
618698058520985 0.266800 3.694219 0.366700 
618698078514839 -1.017249 2.836691 -0.857229 
618698098539422 -2.229213 1.893022 -0.986740 
618698118566193 -3.592225 1.104886 -0.526720 
618698138590724 -5.702694 0.671187 -0.069392 
618698158640464 -7.369894 -0.013759 0.390628 
618698178665047 -9.145069 -1.106082 1.001396 
618698198668120 -11.353644 -2.028515 2.091327 
618698218692703 -13.936098 -3.032005 2.496312 
618698238726453 -17.129320 -3.913760 2.649752 
618698258751037 -18.619152 -4.078866 2.987439 
618698278787912 -17.146070 -3.175874 3.758825 
618698298812495 -15.256039 -1.793720 5.102695 
618698318843485 -14.455939 -0.861715 5.703891 
618698338868016 -14.122738 0.156132 5.677570 
618698358876766 -13.799408 1.100100 5.871388 
618698378901349 -13.665410 1.739582 5.878866 
618698398927808 -13.246068 2.300101 5.622535 
618698418952235 -12.905988 2.693122 5.713462 
618698438977130 -12.757334 2.721836 5.382954 
618698459001558 -12.182458 2.645265 5.742176 
618698479014735 -11.514262 1.988735 5.330012 
618698499039162 -11.106885 1.651048 3.751647 
618698519074110 -9.739087 1.960021 2.414956 
618698539098537 -6.739983 2.218745 3.514458 
618698559119891 -3.901497 2.108675 4.412664 
618698579144318 -1.129711 2.178067 4.374379 
618698599151453 0.942174 2.779263 2.522633 
618698619175933 2.710171 3.140879 1.281656 
618698639220412 5.405087 3.447758 2.065006 
618698659244839 6.660422 2.994917 1.820639 
618698679268953 6.332007 1.739582 1.039981 
618698699293380 7.148857 1.260419 0.932004 
618698719299630 9.115757 1.708475 0.302094 
618698739324110 10.572088 1.991127 -0.593719 
618698759374526 11.868101 2.501397 -1.295713 
618698779398953 12.950853 2.724229 -1.568794 
618698799428745 13.820345 3.684648 -1.810768 
618698819453224 14.793028 4.776971 -2.258825 
618698839474005 15.118751 4.686044 -2.579762 
618698859498433 14.802599 4.310072 -2.232503 
618698879495099 14.816956 4.355536 -1.391426 
618698899519526 15.228821 4.762614 -0.728016 
618698919543016 15.717555 4.959125 -0.488435 
618698939567495 15.981064 5.385645 -0.464507 
618698959609162 16.148861 5.634798 -0.251246 
618698979633589 15.602699 5.313562 -0.040379 
618698999655151 14.711372 5.651548 0.052941 
618699019679630 13.853845 5.469394 0.287737 
618699039707078 12.533904 5.110172 0.452842 
618699059731505 11.345868 4.707580 0.615853 
618699079762078 9.896714 4.422534 1.133301 
618699099786505 8.428120 4.556832 1.710569 
618699119807183 7.160821 4.611866 1.909472 
618699139831662 6.621838 4.877769 2.208874 
618699159827391 5.845965 4.180560 1.947758 
618699179851818 3.850351 3.181856 0.912862 
618699199902808 2.245365 3.227319 0.682852 
618699219927235 1.972284 2.906382 1.018445 
618699239948693 0.003290 1.387538 0.900898 
618699259933380 -4.248756 -0.413958 0.888934 
618699279957808 -7.497013 -0.665504 2.036292 
618699300028797 -10.398011 -0.382852 3.947858 
618699320053224 -13.231711 -0.720539 4.165904 
618699340053068 -15.643975 -1.089332 4.086941 
618699360077495 -16.424932 -0.912264 4.458127 
618699380103797 -16.417755 -0.591027 4.793422 
618699400128224 -15.694224 0.012562 4.827220 
618699420147651 -14.343177 0.827019 5.282156 
618699440172130 -13.576576 1.392324 5.801997 
618699460186558 -13.770695 1.873879 5.919544 
618699480210985 -13.940884 2.400898 6.060720 
618699500262235 -13.581362 2.961417 6.355337 
618699520286662 -13.588541 3.227319 6.285945 
618699540314318 -13.545470 3.152843 6.197411 
618699560338745 -12.604194 3.344568 5.854639 
618699580364422 -11.195718 3.747160 5.330012 
618699600388849 -10.551151 3.862016 4.527819 
618699620373901 -9.976275 3.838088 3.909573 
618699640398380 -7.597511 3.778267 4.182654 
618699660458901 -4.291827 3.361318 3.574279 
618699680483328 -2.279762 2.544468 2.309373 
618699700514787 -0.674776 1.741975 0.946361 
618699720539214 1.905285 1.143171 1.274477 
618699740541870 4.161717 0.412463 2.345265 
618699760566297 6.729814 0.917947 2.407778 
618699780609995 8.765806 1.682154 1.313061 
618699800634422 9.824631 2.326422 0.064905 
618699820648068 10.057034 2.606681 -0.919741 
618699840672547 10.459626 2.091626 -0.557827 
618699860707287 11.887244 2.527718 0.076869 
618699880731766 13.367504 3.835695 -0.751945 
618699900746766 14.608481 4.616652 -1.932802 
618699920775985 15.501902 4.822734 -2.184348 
618699940800464 15.456438 5.021338 -2.000101 
618699960794995 15.320047 5.301598 -1.535295 
618699980819422 15.023038 5.213063 -1.645365 
618700000872860 14.218152 4.741079 -2.009672 
618700020897287 13.700705 4.580760 -1.782055 
618700040917808 13.516158 4.925625 -1.281357 
618700060942235 13.487444 4.887340 -0.845265 
618700080953276 13.367504 4.992624 -0.593719 
618700100977703 13.430017 5.512465 -0.220140 
618700121008016 13.369897 5.685048 -0.083749 
618700141032443 13.278969 5.840581 0.050548 
618700161073016 12.950853 5.534000 0.556032 
618700181097495 11.848959 5.311169 1.032802 
618700201100464 10.502697 5.141279 1.564607 
618700221124891 9.228220 4.889733 1.710569 
618700241167235 7.743174 3.873980 2.017149 
618700261191662 5.809773 2.867798 1.864009 
618700281195724 3.651447 2.774478 1.188336 
618700301220151 1.955534 2.300101 0.656531 
618700321245776 0.508774 1.725225 0.737887 
618700341270203 -1.362114 0.656830 0.783649 
618700361299318 -3.403192 -0.013759 0.723530 
618700381323745 -5.154140 -0.483350 1.032802 
618700401343380 -6.811768 -0.967299 0.385843 
618700421367808 -8.158030 -1.264308 0.136690 
618700441402547 -10.441082 -1.678565 1.248156 
618700461426974 -13.171890 -2.272882 1.954936 
618700481456974 -15.176777 -2.562713 2.661716 
618700501481401 -16.865810 -3.039483 3.727719 
618700521497026 -17.917456 -3.281158 5.172086 
618700541521453 -17.955742 -2.831008 6.585347 
618700561548641 -17.327925 -2.114657 7.493423 
618700581573120 -16.448860 -1.214058 7.751848 
618700601584474 -15.193526 0.134596 7.392625 
618700621608901 -14.084454 1.413859 7.272985 
618700641642808 -13.464114 2.182853 7.040582 
618700661667235 -12.843775 2.676372 6.544669 
618700681675255 -12.283256 2.973381 6.173482 
618700701699683 -12.371790 2.664408 5.349454 
618700721746297 -12.139387 2.477469 4.680959 
618700741770724 -10.769197 2.463112 4.604389 
618700761794735 -9.648160 2.415255 3.806682 
618700781819162 -8.682656 2.319243 2.654538 
618700801839787 -6.869495 2.235495 2.371886 
618700821864214 -4.406682 2.460719 2.285445 
618700841909318 -1.920240 2.757728 2.033899 
618700861933745 0.278764 2.769692 2.129911 
618700881957130 1.625026 2.640480 1.959722 
618700901981558 2.161616 2.120639 1.480559 
618700922006453 3.982255 2.221138 2.299802 
618700942030933 6.380162 2.762514 2.544169 
618700962044787 7.951350 2.221138 1.332204 
618700982069266 8.569595 2.625824 -0.016451 
618701002097651 9.956535 2.841477 -0.450150 
618701022121089 11.032109 2.831906 -0.828515 
618701042145568 11.980564 3.428317 -1.152144 
618701062195933 13.089637 3.806981 -1.276571 
618701082220412 13.695919 4.013062 -1.300499 
618701102224943 14.024035 4.501498 -1.681556 
618701122249422 14.596518 5.093422 -2.019243 
618701142259110 14.828920 5.443073 -2.153241 
618701162283589 14.941382 5.584250 -2.040779 
618701182304110 15.185750 5.637191 -1.508974 
618701202328589 15.856637 6.137590 -0.797408 
618701222387808 16.045670 6.509076 -0.828515 
618701242412287 15.664912 6.609574 -0.941277 
618701262404266 14.785850 5.984449 -0.682553 
618701282449735 14.014463 6.283851 -0.236889 
618701302459370 13.695919 6.669395 0.328415 
618701322483068 12.986746 5.828617 0.687637 
618701342507599 11.144571 4.274179 1.197907 
618701362526297 8.859426 4.400999 1.914258 
618701382534630 7.163214 3.979264 2.683251 
618701402559110 5.280361 2.510968 2.316551 
618701422596662 2.868396 1.389931 1.370489 
618701442621141 -0.011067 1.363610 1.039981 
618701462647599 -2.033002 2.216352 1.197907 
618701482672078 -2.758626 3.061916 0.848256 
618701502690880 -3.685844 3.413960 0.462413 
618701522715412 -4.711169 3.430709 0.297308 
618701542787495 -5.427221 3.157629 -0.253639 
618701562811974 -6.222535 2.796013 -0.368794 
618701582803693 -7.679166 2.568396 0.694816 
618701602828172 -9.291330 1.267598 1.221835 
618701622851193 -11.293824 0.053240 2.074577 
618701642875672 -13.502399 -0.418744 3.020939 
618701662915620 -14.910874 -0.825823 3.579064 
618701682940099 -15.763916 -0.828216 4.086941 
618701702960255 -15.881164 -0.605683 4.309772 
618701722984735 -15.476179 -0.126520 4.046263 
618701743013016 -15.002101 0.448355 3.947858 
618701763037495 -14.721841 0.934696 4.393521 
618701783063068 -14.705091 1.418645 4.894219 
618701803087547 -15.081064 1.550250 5.073980 
618701823104683 -15.128921 1.526322 5.270192 
618701843129162 -14.784055 1.696511 5.426024 
618701863132808 -14.321642 1.741975 4.875077 
618701883161818 -13.387544 1.627119 4.146761 
618701903186297 -11.777772 1.579263 3.145365 
618701923224630 -9.492328 1.864308 2.434099 
618701943249162 -8.055139 2.115853 1.233799 
618701963245828 -6.186643 2.022234 0.551247 
618701983270308 -3.865306 1.991127 1.590928 
618702003323276 -1.254437 2.556432 1.938186 
618702023347755 1.371087 2.918346 2.084148 
618702043333901 1.596312 2.551646 1.887937 
618702063358433 2.051546 2.163710 1.880759 
618702083413328 5.031508 2.273780 2.755036 
618702103437808 6.799206 2.439183 2.237588 
618702123444630 7.944171 2.439183 1.178764 
618702143469110 9.678668 2.439183 0.237488 
618702163438641 12.251252 3.608078 -0.833300 
618702183463172 14.364115 4.978268 -1.820340 
618702203495672 15.164214 5.591428 -2.100599 
618702223520203 14.860026 5.787939 -2.131706 
618702243570255 14.591732 6.034698 -1.647758 
618702263594787 14.457733 6.061020 -1.487438 
618702283630360 14.323437 6.010770 -1.810768 
618702303654839 14.627624 6.401100 -1.666900 
618702323666558 14.994025 6.504290 -1.520938 
618702343691089 14.955740 6.693622 -1.437189 
618702363729839 14.598910 6.818049 -1.554437 
618702383754370 14.107783 6.559325 -1.477867 
618702403766922 13.374682 6.442077 -0.864407 
618702423791453 12.840784 6.635895 -0.069392 
618702443826089 12.100504 6.381957 0.352343 
618702463850620 11.015359 5.955736 0.860220 
618702483860151 9.577870 5.303990 1.346561 
618702503884683 8.147861 3.914658 1.281656 
618702523934162 5.905786 2.951846 0.663709 
618702543958693 3.277868 2.939882 0.242273 
618702563968901 1.332802 2.721836 0.134297 
618702583993380 -0.480658 2.314458 0.203689 
618702604006349 -1.865205 2.429612 0.865005 
618702624030880 -3.014956 2.343172 1.049552 
618702644053224 -4.435695 1.866701 0.512961 
618702664077703 -5.599803 1.605584 0.639781 
618702684121453 -6.395118 1.373181 0.893719 
618702704145985 -6.998707 0.805484 0.915255 
618702724157078 -7.822735 0.062812 1.430310 
618702744181610 -9.513863 -0.893121 1.983650 
618702764181714 -14.331213 -2.550749 2.103590 
618702784206245 -18.041883 -3.573681 3.576672 
618702804254578 -18.171095 -3.432205 6.254838 
618702824279110 -16.566109 -2.689533 7.627421 
618702844292547 -14.951852 -1.901397 7.567601 
618702864317078 -14.649757 -1.388734 6.702894 
618702884350308 -15.069099 -0.787538 5.945865 
618702904374683 -15.171991 -0.447458 6.183053 
618702924398485 -14.585152 0.043669 6.812964 
618702944422860 -13.643875 0.795913 7.086045 
618702964403849 -13.421043 1.179063 6.475277 
618702984428224 -13.576576 1.198206 5.404489 
618703004492183 -13.737195 1.013959 4.465306 
618703024516610 -12.623336 0.946660 3.943073 
618703044556401 -10.683056 0.858126 4.304987 
618703064580828 -8.536694 0.675972 3.780361 
618703084605985 -6.352047 0.972982 2.434099 
618703104630308 -4.040281 1.243670 0.951147 
618703124627495 -1.596910 1.399502 0.745065 
618703144651870 0.681057 1.574477 1.470988 
618703164677443 2.499303 1.380360 1.478166 
618703184701818 4.255336 1.064208 0.678066 
618703204717703 6.236294 1.540679 0.060120 
618703224742078 7.539485 2.050948 -1.400998 
618703244816974 8.294122 1.706083 -2.107778 
618703264841297 9.218648 1.777867 -0.692124 
618703284820099 11.254940 2.530111 0.603889 
618703304844474 13.228720 3.157629 -0.366401 
618703324848849 14.929419 4.314857 -1.580758 
618703344873224 16.156040 5.208278 -1.957030 
618703364930047 16.256538 5.258527 -1.398605 
618703384954422 16.215860 5.694619 -0.644267 
618703404989005 16.194324 6.552146 -0.979562 
618703425013380 15.619449 6.279066 -1.568794 
618703445019891 15.310475 6.096912 -0.965205 
618703465044266 15.245570 6.293423 -0.548256 
618703485073224 14.646767 6.494719 -0.373579 
618703505097547 13.957035 6.604789 -0.042772 
618703525124526 13.458730 6.384350 0.311665 
618703545148953 12.869497 5.862116 0.798006 
618703565179110 12.006885 6.104091 1.540380 
618703585203485 10.921740 6.082555 1.928615 
618703605218953 9.268898 5.443073 1.988436 
618703625243328 7.307082 4.635795 1.689034 
618703645270828 5.666204 4.017848 1.684248 
618703665295203 3.891029 3.878766 1.425524 
618703685320099 1.696810 3.313461 0.850648 
618703705344474 -0.312862 2.688336 0.917647 
618703725366089 -1.788635 2.415255 1.523630 
618703745390464 -2.689234 2.106282 1.320240 
618703765418589 -3.621238 1.943271 0.505783 
618703785442964 -4.859524 1.682154 -0.102891 
618703805474839 -6.174679 0.870090 0.043370 
618703825499214 -7.492227 0.307179 0.872184 
618703845525255 -8.905488 -0.088235 1.852045 
618703865549630 -11.243574 -1.429712 2.192125 
618703885576245 -14.496617 -2.574677 3.128616 
618703905600672 -16.300507 -2.624926 4.762315 
618703925621349 -15.763916 -2.212763 6.139684 
618703945645776 -14.944374 -1.700400 6.520741 
618703965667755 -14.807983 -1.096511 6.024828 
618703985692183 -14.712270 -0.663111 5.703891 
618704005729995 -14.551652 -0.255733 6.015257 
618704025754422 -14.455939 0.141775 6.417850 
618704045767703 -14.606687 0.412463 6.458528 
618704065792130 -14.613865 0.829412 6.180661 
618704085823276 -14.266606 1.088136 6.285945 
618704105847703 -13.409079 1.281955 6.451349 
618704125868953 -12.913166 1.440180 6.407979 
618704145893380 -13.001701 1.385145 5.756533 
618704165916766 -12.208779 1.437787 5.176872 
618704185941193 -10.608580 1.615155 4.733602 
618704205948745 -8.309076 1.893022 4.448556 
618704225973172 -5.954240 2.441576 4.232903 
618704246018224 -4.255934 2.769692 2.968297 
618704266042651 -3.580261 2.365006 1.090230 
618704286060203 -2.073680 1.991127 0.189332 
618704306084630 0.506381 2.005485 1.159622 
618704326107495 1.967498 1.876272 1.576571 
618704346131922 2.813062 1.167099 1.219442 
618704366174318 4.564309 0.975374 1.049552 
618704386198693 5.692525 1.351646 0.591924 
618704406193328 7.323832 0.843769 0.711566 
618704426217755 9.795917 0.939482 1.420738 
618704446262755 12.074183 2.515754 1.470988 
618704466287183 14.273187 3.711268 0.893719 
618704486322495 15.118751 3.996313 0.263809 
618704506346922 15.324833 4.604688 0.623031 
618704526365828 16.031313 5.402395 1.262513 
618704546390255 16.738094 6.262316 0.694816 
618704566389110 16.790735 6.346065 -0.193819 
618704586413485 17.135601 6.614360 -0.236889 
618704606430568 17.636299 7.083951 -0.069392 
618704626454995 17.229219 7.479066 -0.375972 
618704646524162 16.323538 7.146165 -0.330210 
618704666548537 15.394224 6.537790 0.206082 
618704686555255 14.340186 6.279066 0.608674 
618704706579683 13.681561 6.046663 0.946361 
618704726600308 12.989139 5.814260 1.435095 
618704746624683 11.982957 5.400002 2.060220 
618704766647287 10.790134 4.825127 2.410171 
618704786671714 8.947960 4.242774 2.371886 
618704806695255 6.684350 3.351746 1.957329 
618704826719683 4.561916 2.642873 1.760818 
618704846724995 2.422733 1.768296 1.506880 
618704866749422 0.712463 1.492822 0.999003 
618704886815776 -0.655633 2.216352 1.181157 
618704906840255 -1.699801 2.333600 0.963111 
618704926864578 -2.950350 1.770689 0.424128 
618704946889058 -4.361218 1.533500 0.268594 
618704966901401 -5.719444 1.636691 0.639781 
618704986925880 -7.446763 1.250848 1.185943 
618705006922547 -9.178569 0.683151 2.256731 
618705026947026 -10.888839 0.002991 2.997010 
618705047001349 -13.006487 -0.797109 3.408875 
618705067025828 -15.215062 -1.362413 3.866502 
618705087040568 -16.650158 -1.403091 5.016253 
618705107065047 -17.682661 -1.005584 5.974579 
618705127098641 -17.929420 0.424427 5.790032 
618705147123172 -16.990236 2.079662 5.298906 
618705167145568 -15.236897 3.382853 5.272585 
618705187170047 -13.423436 4.156632 5.730212 
618705207170620 -12.290435 4.405785 6.441778 
618705227195151 -12.280863 4.065705 6.482456 
618705247244422 -13.397115 3.452544 6.120541 
618705267268901 -13.969598 2.551646 6.005686 
618705287277808 -13.253246 2.137389 5.986543 
618705307302287 -11.020742 2.280958 5.536094 
618705327343433 -8.689835 2.460719 4.786243 
618705347367912 -7.535297 2.273780 2.953939 
618705367391870 -6.493223 1.547857 1.061516 
618705387416349 -3.994817 0.841376 0.984646 
618705407443745 -0.720240 0.266501 2.314159 
618705427468224 1.962713 -0.093021 2.915654 
618705447444474 3.493521 -0.219841 2.261517 
618705467468953 4.909175 -0.097807 1.209871 
618705487506297 8.325228 0.144168 1.001396 
618705507530828 11.657233 1.289432 1.365704 
618705527567703 12.366406 2.292922 -0.804587 
618705547592183 11.903994 2.242673 -3.051746 
618705567607026 12.090933 1.890629 -2.661118 
618705587631505 13.345968 2.453541 -1.020240 
618705607689370 14.977275 3.155236 -0.349651 
618705627713849 16.524834 4.396214 -0.617946 
618705647734266 17.562122 5.086244 -1.154537 
618705667758745 17.044674 4.920840 -1.633401 
618705687784683 16.543976 5.150850 -1.662114 
618705707809162 16.426727 5.356932 -1.408176 
618705727829943 16.203896 5.395217 -0.883849 
618705747854422 15.966707 5.471787 -0.337687 
618705767882912 15.288940 5.191528 -0.021236 
618705787907391 14.486447 4.654937 0.266202 
618705807929839 13.271791 4.357928 0.239880 
618705827954318 11.997313 4.317250 0.503390 
618705847944839 10.555339 4.348357 0.867398 
618705867969318 9.213862 4.503891 1.301097 
618705887965203 8.504690 4.147061 2.263909 
618705907989370 7.366903 3.878766 2.850749 
618705928067339 6.018248 3.902694 2.536990 
618705948091453 4.674379 3.560221 1.791925 
618705968088172 3.486343 3.054737 1.454238 
618705988112339 1.943570 2.712265 1.315454 
618706008174318 0.281157 2.113461 1.130908 
618706028198537 -1.644766 1.135993 0.498604 
618706048186141 -4.478766 0.647259 -0.469292 
618706068210308 -7.063313 1.540679 0.244666 
618706088237964 -8.517551 1.806581 1.791925 
618706108262130 -9.774980 1.718047 2.618346 
618706128320672 -10.936995 2.120639 3.123830 
618706148344839 -12.929916 1.061815 2.822035 
618706168293849 -15.227325 0.352642 3.234199 
618706188318016 -16.597515 0.194417 4.537390 
618706208415203 -16.872990 0.414856 5.569594 
618706228439370 -17.303995 0.874876 5.617749 
618706248461974 -16.836798 1.454537 5.013861 
618706268486141 -15.311074 2.333600 4.963612 
618706288513641 -13.823337 2.654837 5.378168 
618706308537808 -12.805490 2.920739 5.823532 
618706328536505 -12.060425 3.148057 6.226124 
618706348560672 -12.077174 3.220141 5.780461 
618706368573380 -12.565908 3.332604 5.035396 
618706388597547 -11.906984 3.481258 5.033003 
618706408661558 -9.748658 3.732803 5.749355 
618706428685724 -7.654939 4.003491 4.764708 
618706448705776 -5.903991 4.379464 1.535594 
618706468729943 -3.621238 5.165207 0.366700 
618706488756453 -0.988535 5.246563 1.346561 
618706508780620 -1.060320 3.536293 0.349950 
618706528804943 -1.527518 2.784049 0.771685 
618706548829110 0.745962 3.061916 3.746861 
618706568832391 1.385444 2.424827 2.615953 
618706588856558 1.409373 0.189631 1.001396 
618706608861505 6.437590 -0.174377 3.634099 
618706628885672 11.398510 1.741975 2.738286 
618706648948693 11.717054 2.927918 -2.285146 
618706668972860 12.004492 2.858227 -3.789334 
618706689000933 14.014463 3.569792 -1.959423 
618706709025099 15.406189 3.660720 -1.070489 
618706729046401 16.347765 3.823730 -2.191526 
618706749070568 17.820847 5.493322 -3.760620 
618706769066453 18.568304 6.547361 -4.764409 
618706789085099 17.583656 6.473184 -4.917849 
618706809107599 15.777375 5.589036 -4.323532 
618706829155099 14.392828 5.495716 -3.425326 
618706849173276 13.729418 5.677869 -2.287539 
618706869221245 12.692129 5.409574 -1.542473 
618706889245464 11.420045 4.772186 -1.190429 
618706909264318 10.476376 4.875376 -0.981955 
618706929288485 10.267901 5.193921 -0.498006 
618706949326558 8.753842 4.767400 0.383450 
618706969328068 7.414759 5.299205 0.601496 
618706989367078 7.417152 5.016552 0.402592 
618707009372235 6.399305 5.315955 0.297308 
618707029396349 4.758427 5.819046 0.587139 
618707049451818 3.902993 5.697011 0.567996 
618707069476037 3.562913 5.433502 0.390628 
618707089470151 2.161616 3.909872 0.611067 
618707109494318 -0.483051 3.430709 1.598106 
618707129551089 -2.243570 4.202096 1.502094 
618707149575308 -3.175575 3.811766 0.838684 
618707169580516 -4.140779 2.975774 0.766900 
618707189604630 -5.913562 2.685943 1.224228 
618707209617130 -7.214360 2.065305 1.722533 
618707229641297 -8.373683 1.049851 2.340480 
618707249697755 -9.985847 0.264108 4.175476 
618707269721974 -12.477075 0.091525 7.253842 
618707289746818 -14.041383 -1.034298 9.122337 
618707309771037 -14.922838 -1.551746 9.543773 
618707329791818 -15.268003 -1.000798 9.064610 
618707349816037 -14.793626 -0.243769 7.907681 
618707369840360 -14.015061 0.489332 6.875178 
618707389864578 -13.279568 1.135993 6.506384 
618707409892287 -12.961023 1.727618 6.489634 
618707429916505 -12.168101 2.019841 7.088438 
618707449942026 -11.839986 2.139782 7.517352 
618707469966245 -12.553944 2.043770 7.648957 
618707489990828 -13.301103 1.914557 7.505387 
618707510015047 -12.659228 2.381756 6.710073 
618707530040568 -11.054242 2.700300 6.072685 
618707550064735 -9.461221 2.805584 5.672784 
618707570084370 -7.889734 2.815156 5.301299 
618707590108537 -5.973382 3.275176 4.281059 
618707610137547 -4.215256 3.795017 2.872284 
618707630161766 -3.549154 3.076273 2.546561 
618707650185620 -4.208078 1.741975 1.945365 
618707670209839 -0.377468 1.485644 2.515455 
618707690208849 3.999005 0.417248 3.607778 
618707710233016 5.500800 0.668794 2.113162 
618707730277183 7.060322 0.587438 0.141476 
618707750301401 9.221041 0.496511 -1.108774 
618707770327339 10.703993 1.131207 -2.088635 
618707790351558 11.470294 1.289432 -2.785844 
618707810378745 12.615560 1.497608 -3.204887 
618707830402964 13.149756 1.727618 -3.518646 
618707850427078 13.652848 1.572084 -3.477968 
618707870451297 14.704194 2.352743 -3.375076 
618707890474422 15.648163 3.624827 -4.450650 
618707910498641 15.629020 3.940979 -5.528617 
618707930506245 14.881562 3.639184 -5.142774 
618707950530360 14.102998 3.138486 -4.115356 
618707970568797 13.691133 3.174677 -3.593122 
618707990592964 13.777274 3.732803 -3.015555 
618708010617547 13.619049 3.442973 -2.895914 
618708030641766 13.271791 3.531507 -2.673082 
618708050646089 13.257434 4.092026 -2.309074 
618708070670255 13.072887 4.460820 -2.754438 
618708090695203 12.900604 4.583153 -2.718546 
618708110719370 12.426227 4.391428 -2.299503 
618708130742339 11.286047 4.120739 -1.750948 
618708150766558 9.855738 4.072883 -1.089632 
618708170788120 8.356335 4.233202 -0.562612 
618708190812339 7.448558 4.355536 -0.143569 
618708210859943 6.636494 3.751946 0.163011 
618708230884214 5.548656 3.560221 0.223131 
618708250910828 4.422833 4.202096 0.206082 
618708270935099 3.541378 5.114957 -0.536291 
618708290962599 2.147259 4.444070 -1.631008 
618708310986870 0.480060 3.821338 -1.738984 
618708330999005 -0.825524 3.148057 -0.716052 
618708351023224 -3.094219 1.756332 0.052941 
618708371057912 -5.695516 1.097707 1.720140 
618708391082183 -7.777272 0.534796 3.408875 
618708411110151 -9.595518 -0.988834 4.194618 
618708431134474 -12.079567 -2.370988 5.152944 
618708451152964 -14.987743 -3.511168 5.143372 
618708471177235 -16.904095 -4.062116 5.222335 
618708491204474 -16.791334 -3.781856 6.240481 
618708511228745 -15.488441 -3.233302 7.059724 
618708531237651 -14.592330 -2.572284 7.050153 
618708551261870 -14.410476 -1.779363 6.173482 
618708571297078 -13.962420 -0.876371 5.821139 
618708591321297 -12.824632 0.096311 6.144769 
618708611347391 -12.302399 0.917947 6.444170 
618708631371662 -12.762119 1.269991 6.372087 
618708651398953 -13.339687 1.351646 5.988936 
618708671423224 -13.528720 1.294218 5.476274 
618708691419370 -13.176676 1.334896 5.056931 
618708711443589 -12.081960 1.488037 5.006682 
618708731469370 -10.292427 1.586441 5.555237 
618708751493537 -8.474481 1.250848 5.069195 
618708771540464 -6.787839 1.143171 3.279663 
618708791564735 -5.156533 0.913161 1.425524 
618708811564995 -3.244967 0.244965 0.503390 
618708831589214 -0.094816 -0.893121 1.243370 
618708851643485 3.457629 -1.118046 2.632703 
618708871667755 5.488836 -0.782752 1.672284 
618708891690308 7.050751 -1.024726 -1.020240 
618708911714526 9.673882 -0.725324 -3.061317 
618708931703016 11.343474 -0.363709 -4.079165 
618708951727235 12.191431 -0.699003 -3.046961 
618708971786714 12.687344 -0.569492 -1.504188 
618708991810985 13.834702 0.211466 -1.032204 
618709011836401 15.662519 1.274776 -1.957030 
618709031860672 16.757236 1.643869 -3.415754 
618709051882755 16.606190 1.847558 -3.365505 
618709071907026 16.206289 2.070091 -2.447858 
618709091931349 15.655341 2.216352 -2.402394 
618709111955620 15.145072 1.948057 -3.020340 
618709131979005 14.699409 1.591227 -3.238386 
618709152003328 14.539089 2.132603 -2.641975 
618709172026453 14.527125 2.843870 -2.242075 
618709192050672 14.546268 3.102594 -2.299503 
618709212078901 14.455042 2.848655 -2.376073 
618709232103224 14.232509 2.772085 -2.131706 
618709252101818 13.798810 3.196213 -1.604687 
618709272126193 12.888640 3.428317 -1.410868 
618709292154943 11.616556 3.248855 -1.348356 
618709312179266 10.430912 3.306283 -1.077667 
618709332198120 9.455837 3.689433 -0.747159 
618709352222443 9.077472 3.969693 -0.620339 
618709372243328 8.104790 3.773481 -0.253639 
618709392267651 6.717850 2.970989 -0.141177 
618709412291662 4.906782 1.478465 -0.014058 
618709432315985 2.061118 1.030708 -0.318245 
618709452363016 -1.153640 1.128814 -1.130310 
618709472387339 -4.037888 1.183849 -1.353141 
618709492428433 -5.810671 1.435395 -0.248854 
618709512452755 -6.366404 0.884447 1.104587 
618709532464683 -6.445367 -0.049651 2.405385 
618709552489005 -8.019246 -1.218844 2.700001 
618709572512130 -10.393225 -2.531606 2.721537 
618709592536453 -12.910773 -3.676572 3.602993 
618709612557443 -14.846268 -4.797609 4.767101 
618709632581766 -15.864414 -5.449055 5.718248 
618709652606297 -16.063318 -5.391628 6.673882 
618709672630620 -16.125530 -5.161618 7.148259 
618709692655568 -16.389040 -4.850252 6.575776 
618709712679891 -15.962520 -4.062116 5.744569 
618709732704266 -14.886946 -2.993720 5.354240 
618709752728589 -14.326427 -1.805684 4.973183 
618709772746558 -13.255639 -0.421137 5.801997 
618709792770828 -13.195819 0.158524 6.448956 
618709812806245 -13.799408 0.357428 6.530312 
618709832830568 -13.389936 0.436391 6.235696 
618709852851714 -12.165709 0.719043 5.255835 
618709872876037 -10.062417 1.052244 4.611567 
618709892866505 -7.777272 1.128814 4.728816 
618709912890828 -6.098108 1.061815 3.959822 
618709932954110 -4.351647 0.822234 2.692823 
618709952978433 -2.169393 0.606581 1.602892 
618709972993224 0.822533 0.719043 1.782354 
618709993017547 3.261118 0.364606 1.926222 
618710013033849 3.910171 -0.737288 0.160618 
618710033058172 5.100900 -1.503889 -1.314856 
618710053095724 7.774281 -1.836790 -1.841875 
618710073120047 9.712168 -1.956731 -1.882553 
618710093140151 10.921740 -2.543571 -1.592723 
618710113164474 12.474084 -2.452344 -1.027418 
618710133192964 13.540086 -1.393520 -1.813161 
618710153217287 14.479269 -1.257129 -2.958127 
618710173242130 15.427724 -1.254736 -2.860021 
618710193266453 16.048063 -0.770788 -2.687439 
618710213301037 16.407585 -0.682254 -3.413362 
618710233325360 16.101004 -0.294018 -3.945166 
618710253342651 15.928422 -0.284447 -3.825226 
618710273366974 15.878173 -0.739681 -3.667300 
618710293392808 15.458831 -1.017548 -3.537788 
618710313417130 15.135501 -0.121735 -2.637190 
618710333436818 15.216857 1.021137 -1.832304 
618710353461141 15.425331 1.061815 -1.872982 
618710373487495 14.898312 0.184846 -2.191526 
618710393511818 13.918750 0.261715 -1.801197 
618710413534787 13.492229 1.287040 -1.123131 
618710433559110 12.713665 1.912164 -1.139881 
618710453561558 11.362617 1.895415 -1.264607 
618710473585880 10.208080 2.335993 -0.588933 
618710493586089 9.007781 2.575574 0.002692 
618710513610412 7.886744 3.148057 0.460020 
618710533655464 7.513164 4.115954 1.185943 
618710553679787 7.383653 4.369892 1.530808 
618710573705412 6.423234 3.387639 0.888934 
618710593729735 4.465904 1.588834 -0.021236 
618710613756766 2.585445 0.374178 -0.352044 
618710633781089 0.364905 -0.617647 -0.296710 
618710653826453 -2.140679 -1.539781 -0.033200 
618710673850776 -4.814060 -2.428416 0.977468 
618710693857391 -7.724630 -3.482454 1.279263 
618710713881714 -11.528620 -4.320839 1.272084 
618710733926349 -14.417654 -4.792824 2.719144 
618710753950672 -14.831911 -5.175974 4.590032 
618710773974995 -14.117952 -4.682754 5.416453 
618710793999318 -12.132209 -3.588037 6.376873 
618710814023016 -11.746665 -3.506382 6.707680 
618710834047339 -13.619946 -4.299304 6.295516 
618710854068797 -15.991234 -4.284947 6.580561 
618710874093120 -16.820047 -3.853940 7.517352 
618710894100360 -15.859629 -3.597609 8.937791 
618710914124683 -14.709877 -2.859722 9.524631 
618710934165828 -14.681164 -2.140978 8.817850 
618710954190151 -14.510974 -1.566102 8.674281 
618710974213849 -13.725230 -0.967299 9.258728 
618710994238172 -13.226925 -0.696611 9.804890 
618711014262912 -12.977773 -0.691825 9.524631 
618711034287235 -12.074781 -0.734896 8.578568 
618711054315776 -10.239785 -0.777966 7.569993 
618711074340099 -8.246863 -0.847358 6.046364 
618711094336766 -6.342475 -1.139582 4.168297 
618711114361089 -4.205685 -1.731506 2.302195 
618711134410151 -1.908276 -2.862115 1.262513 
618711154434474 1.244268 -4.098008 1.238585 
618711174458797 5.002495 -3.722036 2.204089 
618711194483120 7.424330 -2.339881 1.377668 
618711214506870 7.352546 -2.629712 -2.804986 
618711234531193 8.193324 -3.841677 -6.489036 
618711254484787 10.358829 -4.543671 -6.735796 
618711274509110 11.822638 -2.933900 -4.809873 
618711294572912 13.283755 -1.202094 -2.977270 
618711314597235 14.788242 -0.691825 -2.222932 
618711334627130 15.480366 -1.166202 -2.747260 
618711354651453 15.947565 -1.558924 -3.085246 
618711374677287 16.244574 -1.089332 -3.054139 
618711394701610 16.558332 -0.545564 -3.391826 
618711414700516 17.137995 -0.160020 -4.043272 
618711434724839 17.423038 -0.555135 -4.457829 
618711454780412 16.778772 -0.816252 -3.954738 
618711474804735 15.940386 -0.040080 -2.675475 
618711494795464 15.609878 0.920339 -2.045564 
618711514819787 15.384653 1.116850 -2.280360 
618711534881193 14.974882 0.769592 -2.174777 
618711554905516 14.256437 0.457926 -1.849054 
618711574931662 13.293326 1.210170 -1.446760 
618711594955985 12.375978 2.053341 -1.240679 
618711614976349 11.228620 2.187638 -1.391426 
618711635000672 9.712168 1.826023 -1.338784 
618711654989683 8.447262 1.854737 -0.871885 
618711675014058 7.141678 2.218745 -0.167498 
618711695071818 6.135796 3.172285 0.587139 
618711715096141 5.364409 3.622434 0.836291 
618711735119110 4.480560 3.162414 0.098405 
618711755143433 3.483950 2.530111 -0.850050 
618711775170568 1.157827 1.694118 -1.245464 
618711795194891 -1.053141 0.675972 -0.649053 
618711815183068 -2.670091 0.017348 0.017049 
618711835207391 -3.961318 0.192024 0.630210 
618711855266505 -5.410471 -0.217448 1.056730 
618711875267755 -7.331609 -1.041476 1.626820 
618711895292078 -9.092427 -1.980659 2.330908 
618711915343953 -11.210075 -3.367599 3.696313 
618711935368276 -13.310674 -3.880261 5.801997 
618711955361401 -14.420047 -4.210770 7.320841 
618711975385724 -15.299109 -4.811966 8.008179 
618711995407026 -16.453648 -5.041976 8.413164 
618712015431349 -16.999809 -4.675575 8.444271 
618712035455412 -16.252350 -4.234698 8.116156 
618712055479735 -14.891731 -3.515954 8.621639 
618712075536297 -14.324035 -2.667997 8.870791 
618712095560620 -14.271393 -1.817648 8.650353 
618712115582912 -14.024632 -1.115654 8.142476 
618712135607235 -13.832908 -0.782752 7.629814 
618712155613172 -13.471292 -0.531207 7.057331 
618712175637495 -12.822239 -0.452243 6.911070 
618712195681505 -12.949059 -0.866501 6.671489 
618712215705828 -13.080963 -1.209273 6.084649 
618712235730516 -10.809875 -1.331307 6.285945 
618712255754839 -8.237292 -1.451247 5.801997 
618712275740255 -6.150751 -1.848755 3.971786 
618712295764578 -3.386442 -2.030908 2.627918 
618712315832651 -0.914058 -2.023730 1.480559 
618712335856974 1.184148 -2.248954 1.231406 
618712355857339 3.457629 -2.466701 1.595714 
618712375881662 6.087640 -1.635494 1.595714 
618712395923328 8.030612 -0.694218 0.218345 
618712415947651 9.640384 -0.864108 -1.662114 
618712435962547 10.540982 -1.290629 -1.477867 
618712455986870 10.064212 -1.300200 -0.057129 
618712476013172 11.513664 -1.101297 0.309272 
618712496037495 13.331612 -1.477568 -2.675475 
618712516059943 15.015860 -1.946860 -4.773980 
618712536084266 16.134504 -1.680958 -3.329613 
618712556089683 16.855341 -0.746860 -1.566401 
618712576114058 17.490337 0.096311 -2.160420 
618712596168485 17.816061 0.740579 -3.605086 
618712616192808 17.590836 0.098704 -4.225426 
618712636199891 16.491333 -0.727717 -3.173780 
618712656224214 15.468402 -0.150449 -1.355534 
618712676263901 15.008681 0.515653 -1.044168 
618712696288224 14.955740 1.052244 -1.461117 
618712716276714 14.838491 1.277169 -1.010669 
618712736301089 14.539089 1.504786 -0.275175 
618712756339943 13.973785 1.866701 0.048156 
618712776364318 13.226327 2.321636 0.057727 
618712796386245 12.526726 2.978167 -0.200997 
618712816410568 11.827423 3.423531 -0.478864 
618712836413953 10.531410 3.119344 -0.572184 
618712856438276 8.531310 2.757728 -0.179462 
618712876481193 7.060322 3.560221 0.685245 
618712896505516 6.229115 4.750650 1.224228 
618712916542078 5.390730 4.645366 0.716351 
618712936566453 4.456333 3.751946 0.292523 
618712956574266 2.836990 2.717050 0.601496 
618712976598589 0.958924 2.268994 1.054338 
618712996626193 -0.971785 1.758725 1.336990 
618713016650516 -2.777768 1.377967 1.914258 
618713036687912 -4.804489 0.352642 1.605285 
618713056712235 -6.174679 -0.725324 0.718744 
618713076733537 -7.252645 -0.861715 0.211167 
618713096757860 -7.817950 -1.144367 0.800399 
618713116775828 -7.822735 -1.714756 2.057827 
618713136793172 -8.155637 -2.749353 2.980261 
618713156817547 -10.156036 -4.093222 3.267699 
618713176854839 -13.025629 -5.367700 3.708277 
618713196879162 -14.668900 -5.777470 5.229514 
618713216886662 -14.784055 -5.995217 6.664310 
618713236910985 -15.014065 -6.196513 7.332805 
618713256948641 -15.323038 -5.791827 7.639385 
618713276972964 -15.014065 -4.888536 7.490731 
618713296988641 -14.748162 -3.975974 7.019046 
618713317012964 -14.542081 -3.137589 6.968797 
618713337048172 -14.297713 -2.533999 7.677670 
618713357072495 -14.312071 -2.292025 8.197512 
618713377099162 -14.733806 -2.402095 8.384451 
618713397123485 -15.332609 -2.809473 8.254939 
618713417125985 -15.881164 -3.384349 7.833503 
618713437150255 -15.684653 -3.753142 6.954440 
618713457159630 -14.125132 -3.937689 5.794818 
618713477183901 -11.030314 -3.774678 5.155336 
618713497220464 -7.197610 -3.372384 5.394918 
618713517244735 -4.459623 -2.981756 4.244867 
618713537295620 -3.002992 -2.394916 2.012364 
618713557319943 -1.041177 -2.294418 0.972682 
618713577345464 3.678067 -1.666601 4.580461 
618713597369787 5.932106 -0.013759 4.949255 
618713617391037 5.402694 0.343071 -0.143569 
618713637415360 5.869893 -0.514457 -3.923631 
618713657422860 8.868998 -0.524028 -2.126920 
618713677447183 10.651052 1.866701 0.730708 
618713697501766 10.224831 3.232105 -2.428715 
618713717526037 9.795917 1.444966 -4.771587 
618713737523068 9.903893 -0.291625 -2.589333 
618713757547391 10.701600 0.175274 -0.560220 
618713777614683 12.787843 1.114457 -1.861018 
618713797639005 14.891133 2.015056 -3.902096 
618713817649578 16.752451 2.264208 -4.234997 
618713837673849 17.118851 2.082055 -3.322434 
618713857699578 16.244574 2.182853 -2.021636 
618713877723901 16.120148 2.525325 -1.532902 
618713897746401 16.156040 2.642873 -2.227718 
618713917770724 16.009779 2.882155 -2.515156 
618713937799422 15.681663 2.901298 -1.789233 
618713957823745 15.094823 2.999702 -0.742373 
618713977844683 14.733207 3.404388 -0.100499 
618713997869005 14.474483 3.847659 -0.517149 
618714017868224 13.940286 4.020241 -1.180858 
618714037892599 13.211970 3.550650 -1.372284 
618714057898224 11.925529 3.236891 -1.192822 
618714077922495 11.082358 3.897908 -0.287139 
618714097962026 10.445269 4.283751 -0.074178 
618714117986349 9.899107 3.950550 -0.419043 
618714138035151 9.254540 3.006881 -0.749552 
618714158059474 8.401798 1.531107 -0.924527 
618714178085151 6.672386 0.247358 -0.689731 
618714198109474 3.900600 -0.710967 0.139083 
618714218093745 1.054936 -1.159024 0.632603 
618714238118120 -1.987239 -1.470389 0.759721 
618714258175360 -4.275077 -1.453640 1.401596 
618714278199735 -5.796314 -2.052444 2.048256 
618714298221141 -6.692127 -2.715854 2.563311 
618714318245568 -7.149754 -3.003292 3.737290 
618714338260985 -8.129315 -3.724428 4.690531 
618714358285360 -8.876774 -4.153342 5.437989 
618714378310151 -10.172787 -4.823930 6.396015 
618714398334526 -12.702299 -5.310272 7.404590 
618714418341974 -14.556437 -5.612066 7.565208 
618714438366349 -14.762519 -5.487639 7.620243 
618714458413068 -14.142180 -5.193023 7.469196 
618714478437495 -14.031811 -4.709075 7.957930 
618714498459891 -14.273786 -4.033401 8.425129 
618714518484266 -14.717055 -3.506382 8.851649 
618714538511141 -15.483357 -3.046661 9.249157 
618714558535516 -16.151852 -2.967399 9.306584 
618714578543693 -16.060925 -3.000899 9.364013 
618714598568016 -15.873985 -3.190231 9.481560 
618714618609787 -15.217455 -3.187838 9.445667 
618714638634162 -14.393426 -2.852544 8.702995 
618714658654891 -12.822239 -2.461915 7.648957 
618714678679318 -10.994422 -2.018944 6.848856 
618714698681662 -8.694620 -1.925325 5.974579 
618714718706037 -6.069395 -1.891825 4.891827 
618714738755516 -3.877270 -1.992623 3.840181 
618714758779943 -0.720240 -2.370988 4.058227 
618714778806401 3.603591 -2.416452 5.421239 
618714798830776 6.583552 -2.562713 6.501598 
618714818826245 6.976573 -1.156631 2.218446 
618714838850568 6.619445 -1.412663 -4.438686 
618714858892443 9.618848 -2.332703 -3.276671 
618714878916870 11.355439 -0.020937 0.682852 
618714898949995 11.130215 0.599402 -0.747159 
618714918974370 11.626127 0.309571 -3.243172 
618714938996714 12.486048 0.374178 -4.024129 
618714959021037 12.993924 0.084347 -3.492325 
618714979018901 14.208581 0.625723 -1.805983 
618714999043276 15.564414 2.199602 -0.658624 
618715019090985 16.292431 2.501397 -1.400998 
618715039115360 16.869699 1.272383 -2.771487 
618715059139683 16.831413 0.855733 -2.958127 
618715079164110 16.965712 1.751546 -2.177170 
618715099193380 17.379969 2.872584 -0.929312 
618715119217755 17.198114 3.047559 -0.098106 
618715139237547 16.182360 3.088237 0.198903 
618715159261922 15.399010 2.831906 0.311665 
618715179279266 14.812170 2.374577 0.395414 
618715199303589 14.160425 2.589931 0.136690 
618715219322912 13.367504 3.035595 -0.227318 
618715239347235 12.366406 3.320640 -0.550648 
618715259383016 11.005788 2.738585 -0.509970 
618715279407443 9.326325 2.549253 -0.071785 
618715299410672 7.980063 2.891726 0.579960 
618715319434995 6.710671 2.925525 0.798006 
618715339496610 5.560920 2.527718 0.649352 
618715359520985 4.164110 1.456930 0.407378 
618715379541766 1.929213 0.668794 -0.265603 
618715399566141 0.487238 1.332503 0.012263 
618715419593745 -0.813560 1.061815 -0.179462 
618715439618120 -2.643770 -0.186341 0.194118 
618715459634214 -5.106284 -0.957727 1.669891 
618715479658589 -7.784450 -0.787538 2.302195 
618715499678016 -9.480363 -0.655932 2.743072 
618715519702339 -10.584651 -0.440279 2.833999 
618715539729318 -12.156137 -0.670289 2.683251 
618715559753693 -13.881063 -1.642673 2.925226 
618715579729683 -15.658332 -2.464308 3.677170 
618715599754058 -17.138891 -2.696711 4.695316 
618715619811297 -17.100307 -2.600998 5.943472 
618715639835620 -15.940985 -2.038087 7.028617 
618715659866974 -15.363716 -1.269093 6.863214 
618715679891349 -15.466607 -0.461815 5.840282 
618715699918693 -15.531512 0.129811 5.330012 
618715719943068 -15.732510 0.199202 5.387739 
618715739967651 -15.986448 -0.085843 5.706284 
618715759992078 -16.147066 -0.183948 5.917151 
618715780005255 -15.814165 -0.425922 5.641677 
618715800029578 -14.074882 -0.485743 5.605785 
618715820068068 -10.814661 -0.406780 6.171090 
618715840070776 -7.959425 -0.363709 6.139684 
618715860095099 -6.634699 -0.821037 3.715755 
618715880115308 -5.427221 -1.348056 0.819542 
618715900139630 -3.391228 -2.152942 -0.545863 
618715920187078 0.108574 -3.310171 0.259023 
618715940211505 4.171288 -3.554239 2.757429 
618715960215672 6.468697 -2.862115 3.907180 
618715980239995 7.767102 -2.598605 2.534597 
618716000288849 9.115757 -1.563710 -0.110070 
618716020313224 10.706386 -2.014158 -1.695913 
618716040336870 12.311372 -2.090729 -1.259821 
618716060361245 12.723236 -1.156631 -0.143569 
618716080334005 13.314861 -0.742074 -0.011665 
618716100358380 14.277973 -0.813859 -1.127917 
618716120428953 14.934204 -0.952942 -1.966601 
618716140400620 16.071991 -0.433101 -1.695913 
618716160424995 17.243578 0.292822 -1.753341 
618716180486974 17.868702 0.242572 -2.299503 
618716200511349 17.897415 -0.289232 -2.749652 
618716220555099 17.590836 -0.097807 -2.435894 
618716240579526 17.648264 0.815055 -1.635793 
618716260599526 17.226828 0.834198 -1.485046 
618716280623901 16.069599 0.558724 -1.176072 
618716300631245 15.202499 0.721436 -0.390329 
618716320655568 14.622838 1.373181 -0.191426 
618716340699214 14.227723 1.828416 -0.608375 
618716360716245 13.262219 1.658226 -1.082453 
618716380740620 11.705091 1.217349 -0.864407 
618716400770568 10.162617 1.454537 -0.090927 
618716420794943 8.885747 2.321636 0.261416 
618716440825516 8.190931 3.066701 -0.148355 
618716460849943 7.354939 3.303890 -0.953241 
618716480839370 6.449554 3.136093 -1.305285 
618716500863745 5.548656 3.323032 -1.202393 
618716520921818 5.215755 4.302893 -0.452543 
618716540946245 5.065007 5.009374 0.143868 
618716560937078 4.073183 3.895515 0.076869 
618716580961453 2.082653 1.950450 -0.167498 
618716601001922 -0.346361 0.635294 0.259023 
618716621026245 -2.854637 0.007777 0.963111 
618716641072078 -4.756632 -0.416351 2.002793 
618716661096453 -6.028418 -0.907478 2.577668 
618716681097443 -6.806982 -2.222334 3.485744 
618716701121818 -8.323434 -3.465704 5.335097 
618716721172183 -11.312966 -4.428816 6.087042 
618716741196610 -13.866407 -4.783252 7.004689 
618716761208016 -15.548263 -5.111368 8.168797 
618716781232339 -16.149460 -5.152046 8.791530 
618716801275360 -15.708582 -4.622634 9.373584 
618716821299735 -15.145670 -3.997509 9.493524 
618716841313380 -14.594723 -3.130410 8.985647 
618716861337755 -14.041383 -2.150549 8.336594 
618716881348328 -13.718052 -1.185344 7.986644 
618716901372651 -13.876278 -0.449851 7.493423 
618716921406714 -13.780266 -0.020937 7.251449 
618716941431089 -13.375580 0.079561 7.143473 
618716961421037 -13.260425 -0.076271 7.066903 
618716981445360 -13.468900 -0.186341 6.537490 
618717001481297 -12.616158 -0.234198 6.654739 
618717021505620 -11.066207 -0.449851 7.054938 
618717041551245 -9.513863 -0.339781 6.602097 
618717061575620 -7.559226 -0.433101 5.976972 
618717081583589 -5.233103 -0.435494 5.033003 
618717101607964 -3.637988 -0.183948 3.159722 
618717121632651 -2.356332 -0.274875 1.284048 
618717141657078 -0.437587 -1.039083 1.010968 
618717161673433 2.046462 -1.283450 1.842473 
618717181697808 4.636094 -0.809073 2.426920 
618717201739787 6.456733 0.065204 1.485345 
618717221764162 7.347760 -0.001795 -0.605982 
618717241792808 9.096615 0.058026 -1.856232 
618717261817183 11.027323 0.393320 -1.528116 
618717281833224 11.101501 -0.454636 -0.771087 
618717301857599 11.410474 -1.915754 1.197907 
618717321872443 12.931711 -2.866901 2.218446 
618717341896766 15.231214 -2.447558 0.869791 
618717361959266 17.492729 -0.222233 -1.520938 
618717381983693 19.281963 2.211566 -3.466004 
618717401993433 20.010279 3.037987 -3.983452 
618717422017860 19.622341 2.817549 -3.667300 
618717442039214 17.507088 2.683551 -3.042175 
618717462063641 15.504294 2.259423 -2.318645 
618717482087599 13.841881 1.423430 -1.798804 
618717502112078 12.728022 1.327717 -0.893420 
618717522144318 12.883855 2.235495 0.096012 
618717542168745 13.556836 3.579364 -0.086142 
618717562217183 13.813167 3.703790 -1.152144 
618717582241662 13.022638 2.975774 -1.801197 
618717602268068 11.757732 2.786442 -1.226322 
618717622292495 11.008181 4.013062 -0.256032 
618717642281766 10.370792 4.748258 -0.098106 
618717662306193 9.225827 3.993920 -0.509970 
618717682339526 7.972885 2.884548 -0.390329 
618717702363953 6.425626 1.562513 -0.313460 
618717722384526 5.134399 1.787439 0.017049 
618717742409005 3.845565 1.876272 1.063909 
618717762458172 2.132902 0.922732 1.003789 
618717782482599 0.673879 -0.267697 0.819542 
618717802484943 -1.216152 -1.190130 1.887937 
618717822509370 -3.738486 -1.791327 2.556133 
618717842530724 -5.616553 -2.090729 3.176771 
618717862555151 -7.947461 -3.480062 3.691527 
618717882575464 -11.171790 -4.651348 4.348058 
618717902599891 -14.441582 -5.702994 5.136194 
618717922628068 -16.776978 -6.471987 6.700501 
618717942652495 -16.717155 -6.038587 8.695817 
618717962687547 -15.909878 -5.647959 10.056436 
618717982712026 -15.722939 -4.910072 10.348659 
618718002724839 -15.617654 -3.798606 9.843175 
618718022749266 -14.748162 -2.636891 9.239586 
618718042731401 -13.722837 -1.592423 9.028718 
618718062755880 -13.167105 -0.699003 8.789137 
618718082794110 -12.882060 0.053240 8.516056 
618718102818589 -12.762119 0.541974 8.449057 
618718122865985 -13.044772 0.594616 8.137691 
618718142890464 -12.977773 0.630509 7.232306 
618718162915880 -12.268899 0.637687 6.791429 
618718182940360 -11.389537 0.652044 6.396015 
618718202942703 -10.146465 0.671187 5.670392 
618718222967183 -8.900702 0.654437 4.829613 
618718243008641 -7.698308 0.398106 3.452245 
618718263033120 -5.731409 0.036491 2.819642 
618718283019995 -3.431906 -0.840180 2.731108 
618718303044474 -1.005285 -2.023730 2.115554 
618718323084058 2.693421 -2.026123 2.558526 
618718343108537 5.589633 -1.336092 3.131008 
618718363151193 6.131010 -2.164906 0.745065 
618718383175516 7.501200 -3.082554 -1.654936 
618718403171974 9.968499 -1.788934 -2.407180 
618718423196349 11.499308 -0.873679 -2.402394 
618718443224943 12.212967 -0.258126 -1.839482 
618718463249266 13.209578 -0.229412 -1.990529 
618718483273172 14.392828 -0.890728 -1.686342 
618718503297547 16.376478 0.041276 0.055334 
618718523343276 18.367008 2.038984 0.278166 
618718543367599 19.337297 3.850052 -1.849054 
618718563373433 19.162321 4.063312 -3.228815 
618718583397703 17.909380 2.796013 -2.598905 
618718603390880 16.541582 2.125425 -0.548256 
618718623415151 15.717555 2.762514 0.644567 
618718643481297 15.439688 3.667898 0.024227 
618718663505620 15.348761 3.936193 -1.096810 
618718683551870 14.462519 2.424827 -0.965205 
618718703369474 13.084851 2.345564 0.239880 
618718723393849 12.867105 4.063312 0.735494 
618718743608641 13.202399 4.628616 -0.191426 
618718763632964 12.919746 3.486043 -0.663410 
618718783681974 11.877672 1.710868 0.280558 
618718803706297 10.330114 1.128814 1.727319 
618718823743328 8.107183 1.299004 1.875973 
618718843767599 6.238687 1.260419 1.157229 
618718863783537 5.012066 -0.294018 1.389632 
618718883807860 2.271686 -1.642673 2.436492 
618718903835099 -1.225723 -2.040479 2.958725 
618718923859422 -4.140779 -0.840180 2.024328 
618718943864266 -5.693123 0.148953 0.706780 
618718963888589 -6.145965 0.433998 1.128515 
618718983907808 -6.486045 -0.069093 2.692823 
618719003932130 -7.784450 -1.336092 3.876074 
618719023967026 -10.685449 -2.344667 4.060620 
618719043991349 -13.519149 -3.633501 4.925326 
618719064020151 -15.876378 -4.766503 6.345766 
618719084044474 -17.531612 -5.298307 7.579565 
618719104049110 -17.584255 -4.749753 8.384451 
618719124073433 -16.295422 -3.401098 8.836993 
618719144125047 -14.515759 -1.700400 8.410771 
618719164149370 -12.822239 0.213859 7.632207 
618719184172026 -11.942877 1.564906 7.225128 
618719204196349 -12.537194 1.789831 7.459625 
618719224187391 -14.570794 0.699901 7.337591 
618719244211766 -16.233208 -0.430708 6.781857 
618719264249995 -16.285851 -0.888335 6.661917 
618719284274318 -14.872589 -1.019941 7.476374 
618719304301193 -13.751552 -1.125225 7.339983 
618719324325516 -11.792130 -0.885943 6.432206 
618719344354214 -9.468399 -0.595813 5.881259 
618719364378537 -7.441978 -0.615255 5.155336 
618719384407235 -4.617549 -0.615255 4.865506 
618719404431505 -1.549054 -0.512064 5.557630 
618719424430464 -0.075673 -0.663111 4.796114 
618719444454787 -0.312862 -1.221237 2.379064 
618719464444422 2.164009 -1.827219 0.045763 
618719484468797 6.250651 -1.441676 -0.313460 
618719504536453 9.817452 -0.056830 -0.627518 
618719524560776 11.906386 0.946660 -2.452643 
618719544585203 12.112468 1.018744 -1.990529 
618719564609526 11.733804 0.158524 -0.057129 
618719584625203 12.011670 -0.591027 -0.026022 
618719604649526 13.525729 0.007777 -0.881456 
618719624681558 14.919847 0.920339 -2.553441 
618719644705880 16.036098 0.882054 -3.626622 
618719664692391 16.036098 0.649651 -2.711367 
618719684716766 16.151255 1.715654 -1.468296 
618719704756974 16.438692 2.443969 -2.141277 
618719724781349 16.325930 1.775474 -2.934199 
618719744796870 15.753447 1.514358 -1.480260 
618719764821245 15.454045 2.398506 0.314058 
618719784871870 15.487545 2.903989 0.091226 
618719804896245 15.276977 2.582753 -1.269392 
618719824926141 14.733207 1.818545 -1.877768 
618719844950516 14.028820 1.971985 -1.451546 
618719864987339 13.808381 2.508575 -0.929312 
618719885011714 13.475480 2.465505 -0.780658 
618719904996505 12.948461 2.738585 -0.658624 
618719925020880 12.222538 2.120639 -0.771087 
618719945064110 10.770992 0.148953 -1.501795 
618719965088485 7.776674 -1.019941 -1.070489 
618719985100308 5.084150 -1.537389 0.508176 
618720005124683 2.705385 -1.808077 1.765604 
618720025145724 0.099003 -1.793720 3.085545 
618720045170099 -2.229213 -2.157728 3.864110 
618720065205568 -4.696513 -2.461915 3.564708 
618720085229943 -6.795018 -1.846362 2.814857 
618720105272130 -7.693523 -1.796113 2.764607 
618720125296453 -8.706584 -2.720639 3.730111 
618720145302912 -10.982458 -4.086044 4.781458 
618720165327287 -13.413865 -4.591527 5.953043 
618720185349683 -15.006886 -4.328018 7.215258 
618720205374058 -15.912271 -4.153342 7.546065 
618720225395412 -15.572190 -3.669394 7.536494 
618720245419787 -14.764912 -2.809473 7.485946 
618720265453485 -14.702699 -2.299203 7.385447 
618720285477860 -14.647365 -1.934896 7.653742 
618720305507391 -13.998312 -1.307379 8.523234 
618720325531766 -13.590934 -0.797109 8.854042 
618720345554318 -14.007883 -0.502493 8.099405 
618720365578693 -14.333606 -0.550349 7.445268 
618720385606662 -14.089239 -0.792323 7.335198 
618720405631037 -13.983954 -1.084547 7.471589 
618720425655724 -14.182858 -1.369592 7.074081 
618720445680099 -13.545470 -1.487139 6.276374 
618720465704787 -11.483156 -1.233201 6.384051 
618720485729162 -9.092427 -0.821037 6.477670 
618720505750516 -7.219146 -0.418744 5.744569 
618720525774891 -5.415257 0.172881 4.357629 
618720545804578 -2.756233 0.968196 4.395914 
618720565828953 -0.686740 1.859522 3.681956 
618720585845360 0.707677 2.036591 2.184946 
618720605869683 1.953141 1.543072 2.352444 
618720625898328 3.277868 0.472283 2.944368 
618720645922703 4.724628 -0.203091 2.592025 
618720665955620 6.190830 -0.442672 0.615853 
618720685979943 8.641380 0.199202 -1.003490 
618720705990933 10.770992 0.678365 -1.791626 
618720726015255 12.366406 0.824627 -0.555434 
618720746056453 13.547264 1.813760 0.857827 
618720766080776 13.564014 2.099104 -0.117248 
618720786100047 13.286148 1.607977 -0.886242 
618720806124370 13.595121 1.466501 -0.821336 
618720826144266 14.431113 1.677369 -0.936491 
618720846168589 15.281762 2.242673 -1.997708 
618720866161037 16.508083 3.210570 -3.279064 
618720886185412 17.094923 3.263212 -2.986841 
618720906228797 16.453049 3.318247 -1.103989 
618720926253068 15.981064 3.409174 0.699602 
618720946311245 15.190536 3.100201 1.162014 
618720966335620 14.268401 3.401996 0.814756 
618720986325620 13.626227 4.036991 0.788435 
618721006349943 13.053745 4.130311 1.317847 
618721026391974 12.397513 4.060919 2.144268 
618721046416297 11.793923 4.322036 2.671287 
618721066454370 10.989038 4.849055 2.527419 
618721086478693 9.654740 5.574678 2.088934 
618721106475360 8.243573 5.704190 1.729712 
618721126499683 6.495018 5.313562 1.260120 
618721146558016 4.858925 4.664509 0.965504 
618721166582339 3.119642 4.053741 1.506880 
618721186598589 1.601097 4.115954 2.223231 
618721206622912 0.688236 3.387639 2.637788 
618721226645412 -0.375075 2.700300 2.958725 
618721246669735 -1.223331 2.230709 3.004189 
618721266684526 -1.635195 2.249851 2.814857 
618721286708849 -1.999502 1.619941 2.417349 
618721306742860 -4.025924 0.333500 2.187339 
618721326767183 -6.375975 -0.917049 2.915654 
618721346814735 -9.101998 -1.903790 4.046263 
618721366839058 -12.268899 -2.720639 4.522734 
618721386864526 -14.597116 -3.123232 4.827220 
618721406888849 -15.751653 -3.300301 5.011468 
618721426911662 -15.862021 -2.869293 5.318048 
618721446935985 -15.469000 -2.270490 5.263013 
618721466915516 -15.004494 -1.642673 5.126623 
618721486939787 -14.693128 -0.952942 5.593522 
618721507011610 -14.278571 -0.229412 6.527919 
618721527036089 -13.991133 0.074776 7.181758 
618721547060776 -14.369498 0.122632 7.066903 
618721567085308 -14.594723 0.010169 6.856035 
618721587088953 -14.178072 -0.030508 6.812964 
618721607113485 -13.971991 -0.143270 6.484848 
618721627097964 -14.050954 -0.375673 6.726823 
618721647122443 -13.811373 -0.538385 6.642775 
618721667154630 -12.886846 -0.502493 6.183053 
618721687179110 -10.922637 -0.145663 6.079863 
618721707210464 -8.404790 0.544367 5.859425 
618721727234995 -6.244071 1.164706 4.994718 
618721747278953 -4.373182 1.397109 3.849752 
618721767303537 -2.548057 2.146960 3.171686 
618721787296818 -0.837488 2.848655 3.392125 
618721807321349 0.635594 2.542075 3.169294 
618721827348328 2.367698 2.084448 3.296412 
618721847372808 3.598805 1.392324 2.776572 
618721867380985 5.280361 0.781556 1.969293 
618721887405516 7.084250 0.604188 1.372882 
618721907478953 8.540881 0.644866 0.503390 
618721927503485 9.963714 0.506082 -0.246461 
618721947505880 10.485947 0.156132 -0.088534 
618721967530412 11.393724 0.050847 0.774078 
618721987543537 13.231112 0.886840 0.819542 
618722007568016 15.102001 1.514358 -0.610768 
618722027344005 16.278074 1.643869 -2.752045 
618722047663276 16.867306 2.225923 -2.589333 
618722067670151 16.970497 2.750550 -1.219143 
618722087682912 16.335501 2.211566 -1.013061 
618722107724943 15.892529 1.983949 -1.051346 
618722127743745 15.796517 2.695515 -0.768694 
618722147768224 15.617056 3.116951 -0.620339 
618722167792964 15.597914 3.203391 -0.488435 
618722187817443 15.025431 3.093022 -0.054736 
618722207844735 14.304294 3.318247 0.500997 
618722227869214 13.710276 3.775874 0.556032 
618722247915151 13.233505 4.060919 0.637388 
618722267939630 12.991531 4.400999 1.013360 
618722287961974 12.241681 4.314857 1.506880 
618722307986453 10.766207 4.310072 1.995614 
618722328004578 9.228220 4.552046 2.263909 
618722348029005 7.616055 4.403392 1.962115 
618722368062495 6.058926 3.845266 1.684248 
618722388050933 4.583452 3.236891 1.801496 
618722408105464 2.937788 2.858227 2.434099 
618722428099005 1.306481 2.099104 2.704787 
618722448123485 -0.995713 1.260419 2.580061 
618722468181245 -3.733701 0.848555 2.105983 
618722488205724 -6.138786 0.786341 1.890330 
618722508231818 -8.026424 0.541974 1.492523 
618722528256297 -9.125926 0.371785 1.449452 
618722548277183 -8.613264 0.915554 3.047260 
